USUBJID,STUDYID,SUBJID,SITEID,ARM,TRT01P,TRT01A,AGE,AGEU,AGEGR1,SEX,RACE,TRTSDT,TRTEDT,TRTDURD,SAFFL,ITTFL,DTHFL,FIRSTAEDT,MAXAEGR
ADC-XYZ-001-001-0014,ADC-XYZ-001,0014,001,Placebo,Placebo,Placebo,38,YEARS,18-64,M,OTHER,2025-08-17,2025-10-06,51,Y,Y,N,2025-11-02,4
ADC-XYZ-001-001-0021,ADC-XYZ-001,0021,001,Drug X 50mg,Drug X 50mg,Drug X 50mg,46,YEARS,18-64,M,WHITE,2025-06-22,2025-07-22,31,Y,Y,Y,2025-07-14,2
ADC-XYZ-001-001-0032,ADC-XYZ-001,0032,001,Placebo,Placebo,Placebo,32,YEARS,18-64,F,WHITE,2025-08-21,2025-10-26,67,Y,Y,N,,
ADC-XYZ-001-001-0033,ADC-XYZ-001,0033,001,Drug X 50mg,Drug X 50mg,Drug X 50mg,78,YEARS,>=75,F,WHITE,2025-10-08,2025-11-13,37,Y,Y,N,,
ADC-XYZ-001-001-0049,ADC-XYZ-001,0049,001,Placebo,Placebo,Placebo,75,YEARS,>=75,M,WHITE,2025-01-17,2025-04-02,76,Y,Y,N,2025-02-22,2
ADC-XYZ-001-001-0060,ADC-XYZ-001,0060,001,Drug X 50mg,Drug X 50mg,Drug X 50mg,59,YEARS,18-64,M,OTHER,2025-07-27,2025-10-18,84,Y,Y,N,2025-08-24,3
ADC-XYZ-001-001-0062,ADC-XYZ-001,0062,001,Placebo,Placebo,Placebo,82,YEARS,>=75,F,BLACK OR AFRICAN AMERICAN,2025-02-15,2025-02-24,10,Y,Y,N,2025-02-22,3
ADC-XYZ-001-001-0065,ADC-XYZ-001,0065,001,Placebo,Placebo,Placebo,46,YEARS,18-64,F,WHITE,2025-09-13,2025-11-28,77,Y,Y,N,,
ADC-XYZ-001-001-0071,ADC-XYZ-001,0071,001,Drug X 50mg,Drug X 50mg,Drug X 50mg,64,YEARS,18-64,M,WHITE,2025-04-06,2025-05-12,37,Y,Y,N,2025-05-19,4
ADC-XYZ-001-001-0077,ADC-XYZ-001,0077,001,Placebo,Placebo,Placebo,59,YEARS,18-64,F,OTHER,2025-07-30,2025-09-02,35,Y,Y,N,2025-08-06,2
ADC-XYZ-001-001-0083,ADC-XYZ-001,0083,001,Placebo,Placebo,Placebo,65,YEARS,65-74,F,BLACK OR AFRICAN AMERICAN,2025-10-11,2025-12-21,72,Y,Y,N,2025-12-18,2
ADC-XYZ-001-001-0086,ADC-XYZ-001,0086,001,Placebo,Placebo,Placebo,34,YEARS,18-64,F,WHITE,2025-10-10,2025-11-16,38,Y,Y,N,2025-10-11,3
ADC-XYZ-001-001-0091,ADC-XYZ-001,0091,001,Placebo,Placebo,Placebo,51,YEARS,18-64,M,WHITE,2025-06-19,2025-06-26,8,Y,Y,N,,
ADC-XYZ-001-001-0093,ADC-XYZ-001,0093,001,Placebo,Placebo,Placebo,31,YEARS,18-64,M,WHITE,2025-02-24,2025-03-14,19,Y,Y,N,2025-02-25,4
ADC-XYZ-001-001-0098,ADC-XYZ-001,0098,001,Placebo,Placebo,Placebo,37,YEARS,18-64,M,WHITE,2025-05-19,2025-05-30,12,Y,Y,N,2025-05-21,4
ADC-XYZ-001-001-0103,ADC-XYZ-001,0103,001,Drug X 50mg,Drug X 50mg,Drug X 50mg,61,YEARS,18-64,M,BLACK OR AFRICAN AMERICAN,2025-06-27,2025-09-15,81,Y,Y,N,2025-07-04,3
ADC-XYZ-001-001-0104,ADC-XYZ-001,0104,001,Drug X 50mg,Drug X 50mg,Drug X 50mg,23,YEARS,18-64,M,BLACK OR AFRICAN AMERICAN,2025-06-14,2025-08-20,68,Y,Y,N,2025-06-19,3
ADC-XYZ-001-001-0107,ADC-XYZ-001,0107,001,Placebo,Placebo,Placebo,53,YEARS,18-64,M,WHITE,2025-03-19,2025-04-23,36,Y,Y,N,2025-04-22,1
ADC-XYZ-001-001-0111,ADC-XYZ-001,0111,001,Placebo,Placebo,Placebo,54,YEARS,18-64,F,OTHER,2025-02-05,2025-04-28,83,Y,Y,N,2025-02-22,5
ADC-XYZ-001-001-0117,ADC-XYZ-001,0117,001,Drug X 50mg,Drug X 50mg,Drug X 50mg,52,YEARS,18-64,M,WHITE,2025-06-15,2025-08-29,76,Y,Y,N,2025-06-18,3
ADC-XYZ-001-001-0120,ADC-XYZ-001,0120,001,Drug X 50mg,Drug X 50mg,Drug X 50mg,76,YEARS,>=75,M,WHITE,2025-07-27,2025-09-08,44,Y,Y,N,2025-07-28,1
ADC-XYZ-001-001-0124,ADC-XYZ-001,0124,001,Placebo,Placebo,Placebo,32,YEARS,18-64,F,WHITE,2025-05-20,2025-07-13,55,Y,Y,N,2025-08-01,2
ADC-XYZ-001-001-0125,ADC-XYZ-001,0125,001,Drug X 50mg,Drug X 50mg,Drug X 50mg,85,YEARS,>=75,F,OTHER,2025-08-05,2025-10-01,58,Y,Y,N,2025-08-17,1
ADC-XYZ-001-001-0126,ADC-XYZ-001,0126,001,Placebo,Placebo,Placebo,74,YEARS,65-74,M,BLACK OR AFRICAN AMERICAN,2025-05-04,2025-06-01,29,Y,Y,N,2025-05-19,3
ADC-XYZ-001-001-0135,ADC-XYZ-001,0135,001,Drug X 50mg,Drug X 50mg,Drug X 50mg,21,YEARS,18-64,F,WHITE,2025-09-14,2025-11-13,61,Y,Y,N,,
ADC-XYZ-001-001-0141,ADC-XYZ-001,0141,001,Placebo,Placebo,Placebo,49,YEARS,18-64,F,BLACK OR AFRICAN AMERICAN,2025-01-03,2025-01-19,17,Y,Y,N,2025-02-09,3
ADC-XYZ-001-001-0146,ADC-XYZ-001,0146,001,Placebo,Placebo,Placebo,35,YEARS,18-64,F,ASIAN,2025-04-22,2025-06-24,64,Y,Y,N,2025-05-28,3
ADC-XYZ-001-001-0151,ADC-XYZ-001,0151,001,Drug X 50mg,Drug X 50mg,Drug X 50mg,32,YEARS,18-64,M,WHITE,2025-07-31,2025-09-17,49,Y,Y,N,2025-08-06,5
ADC-XYZ-001-001-0152,ADC-XYZ-001,0152,001,Placebo,Placebo,Placebo,39,YEARS,18-64,M,OTHER,2025-10-17,2025-10-25,9,Y,Y,N,,
ADC-XYZ-001-001-0155,ADC-XYZ-001,0155,001,Drug X 50mg,Drug X 50mg,Drug X 50mg,27,YEARS,18-64,M,WHITE,2025-04-15,2025-07-05,82,Y,Y,N,2025-04-25,2
ADC-XYZ-001-001-0157,ADC-XYZ-001,0157,001,Placebo,Placebo,Placebo,61,YEARS,18-64,F,WHITE,2025-04-10,2025-04-18,9,Y,Y,N,2025-04-22,4
ADC-XYZ-001-001-0161,ADC-XYZ-001,0161,001,Placebo,Placebo,Placebo,29,YEARS,18-64,F,WHITE,2025-02-08,2025-03-01,22,Y,Y,N,,
ADC-XYZ-001-001-0163,ADC-XYZ-001,0163,001,Placebo,Placebo,Placebo,40,YEARS,18-64,M,WHITE,2025-08-21,2025-10-10,51,Y,Y,N,2025-09-22,2
ADC-XYZ-001-001-0164,ADC-XYZ-001,0164,001,Drug X 50mg,Drug X 50mg,Drug X 50mg,41,YEARS,18-64,F,WHITE,2025-03-23,2025-04-18,27,Y,Y,N,,
ADC-XYZ-001-001-0165,ADC-XYZ-001,0165,001,Placebo,Placebo,Placebo,43,YEARS,18-64,F,WHITE,2025-07-10,2025-09-02,55,Y,Y,N,2025-08-31,4
ADC-XYZ-001-001-0171,ADC-XYZ-001,0171,001,Drug X 50mg,Drug X 50mg,Drug X 50mg,70,YEARS,65-74,F,WHITE,2025-03-07,2025-04-04,29,Y,Y,N,2025-03-08,3
ADC-XYZ-001-001-0173,ADC-XYZ-001,0173,001,Placebo,Placebo,Placebo,67,YEARS,65-74,F,WHITE,2025-01-23,2025-03-04,41,Y,Y,N,2025-03-02,5
ADC-XYZ-001-001-0183,ADC-XYZ-001,0183,001,Drug X 50mg,Drug X 50mg,Drug X 50mg,42,YEARS,18-64,F,OTHER,2025-01-24,2025-02-06,14,Y,Y,N,,
ADC-XYZ-001-001-0186,ADC-XYZ-001,0186,001,Drug X 50mg,Drug X 50mg,Drug X 50mg,76,YEARS,>=75,M,WHITE,2025-05-27,2025-06-22,27,Y,Y,N,,
ADC-XYZ-001-001-0192,ADC-XYZ-001,0192,001,Placebo,Placebo,Placebo,18,YEARS,18-64,M,WHITE,2025-06-16,2025-09-07,84,Y,Y,N,2025-08-25,4
ADC-XYZ-001-001-0195,ADC-XYZ-001,0195,001,Placebo,Placebo,Placebo,47,YEARS,18-64,M,WHITE,2025-05-19,2025-07-06,49,Y,Y,N,,
ADC-XYZ-001-001-0198,ADC-XYZ-001,0198,001,Drug X 50mg,Drug X 50mg,Drug X 50mg,68,YEARS,65-74,M,WHITE,2025-08-13,2025-08-23,11,Y,Y,N,2025-08-13,5
ADC-XYZ-001-001-0207,ADC-XYZ-001,0207,001,Drug X 50mg,Drug X 50mg,Drug X 50mg,57,YEARS,18-64,F,WHITE,2025-06-02,2025-07-07,36,Y,Y,N,2025-06-11,3
ADC-XYZ-001-001-0213,ADC-XYZ-001,0213,001,Placebo,Placebo,Placebo,41,YEARS,18-64,M,WHITE,2025-08-11,2025-10-27,78,Y,Y,N,2025-10-22,4
ADC-XYZ-001-001-0214,ADC-XYZ-001,0214,001,Placebo,Placebo,Placebo,71,YEARS,65-74,M,BLACK OR AFRICAN AMERICAN,2025-07-23,2025-09-24,64,Y,Y,N,,
ADC-XYZ-001-001-0216,ADC-XYZ-001,0216,001,Drug X 50mg,Drug X 50mg,Drug X 50mg,49,YEARS,18-64,F,OTHER,2025-04-13,2025-06-01,50,Y,Y,N,2025-05-10,4
ADC-XYZ-001-001-0217,ADC-XYZ-001,0217,001,Placebo,Placebo,Placebo,72,YEARS,65-74,M,WHITE,2025-10-07,2025-12-21,76,Y,Y,Y,2025-12-02,1
ADC-XYZ-001-001-0225,ADC-XYZ-001,0225,001,Placebo,Placebo,Placebo,56,YEARS,18-64,F,WHITE,2025-08-26,2025-11-14,81,Y,Y,N,2025-09-21,1
ADC-XYZ-001-001-0243,ADC-XYZ-001,0243,001,Drug X 50mg,Drug X 50mg,Drug X 50mg,42,YEARS,18-64,M,ASIAN,2025-03-19,2025-06-07,81,Y,Y,N,2025-03-24,3
ADC-XYZ-001-001-0252,ADC-XYZ-001,0252,001,Drug X 50mg,Drug X 50mg,Drug X 50mg,29,YEARS,18-64,M,WHITE,2025-03-09,2025-05-19,72,Y,Y,N,2025-05-08,1
ADC-XYZ-001-001-0253,ADC-XYZ-001,0253,001,Placebo,Placebo,Placebo,31,YEARS,18-64,F,BLACK OR AFRICAN AMERICAN,2025-08-29,2025-11-17,81,Y,Y,N,2025-10-01,3
ADC-XYZ-001-001-0260,ADC-XYZ-001,0260,001,Drug X 50mg,Drug X 50mg,Drug X 50mg,45,YEARS,18-64,F,WHITE,2025-09-06,2025-10-07,32,Y,Y,N,2025-09-11,3
ADC-XYZ-001-001-0264,ADC-XYZ-001,0264,001,Drug X 50mg,Drug X 50mg,Drug X 50mg,46,YEARS,18-64,F,BLACK OR AFRICAN AMERICAN,2025-06-01,2025-07-11,41,Y,Y,N,,
ADC-XYZ-001-001-0270,ADC-XYZ-001,0270,001,Drug X 50mg,Drug X 50mg,Drug X 50mg,59,YEARS,18-64,M,WHITE,2025-07-28,2025-10-06,71,Y,Y,N,2025-09-02,4
ADC-XYZ-001-001-0271,ADC-XYZ-001,0271,001,Drug X 50mg,Drug X 50mg,Drug X 50mg,44,YEARS,18-64,F,BLACK OR AFRICAN AMERICAN,2025-07-26,2025-09-25,62,Y,Y,N,2025-09-08,2
ADC-XYZ-001-001-0272,ADC-XYZ-001,0272,001,Drug X 50mg,Drug X 50mg,Drug X 50mg,61,YEARS,18-64,M,WHITE,2025-04-27,2025-05-13,17,Y,Y,N,2025-05-29,1
ADC-XYZ-001-001-0281,ADC-XYZ-001,0281,001,Drug X 50mg,Drug X 50mg,Drug X 50mg,23,YEARS,18-64,M,WHITE,2025-07-22,2025-07-30,9,Y,Y,N,2025-08-07,3
ADC-XYZ-001-001-0286,ADC-XYZ-001,0286,001,Drug X 50mg,Drug X 50mg,Drug X 50mg,63,YEARS,18-64,F,WHITE,2025-07-18,2025-09-25,70,Y,Y,N,2025-10-14,1
ADC-XYZ-001-001-0288,ADC-XYZ-001,0288,001,Placebo,Placebo,Placebo,21,YEARS,18-64,M,WHITE,2025-02-03,2025-02-20,18,Y,Y,N,2025-03-08,1
ADC-XYZ-001-001-0298,ADC-XYZ-001,0298,001,Placebo,Placebo,Placebo,34,YEARS,18-64,F,WHITE,2025-01-03,2025-01-11,9,Y,Y,N,,
ADC-XYZ-001-001-0303,ADC-XYZ-001,0303,001,Placebo,Placebo,Placebo,82,YEARS,>=75,M,WHITE,2025-04-13,2025-07-01,80,Y,Y,N,2025-05-07,2
ADC-XYZ-001-001-0306,ADC-XYZ-001,0306,001,Drug X 50mg,Drug X 50mg,Drug X 50mg,74,YEARS,65-74,M,WHITE,2025-01-24,2025-03-23,59,Y,Y,N,2025-01-28,2
ADC-XYZ-001-001-0317,ADC-XYZ-001,0317,001,Drug X 50mg,Drug X 50mg,Drug X 50mg,26,YEARS,18-64,M,WHITE,2025-02-26,2025-04-28,62,Y,Y,N,,
ADC-XYZ-001-001-0323,ADC-XYZ-001,0323,001,Drug X 50mg,Drug X 50mg,Drug X 50mg,18,YEARS,18-64,M,BLACK OR AFRICAN AMERICAN,2025-06-24,2025-08-19,57,Y,Y,N,,
ADC-XYZ-001-001-0326,ADC-XYZ-001,0326,001,Placebo,Placebo,Placebo,56,YEARS,18-64,F,BLACK OR AFRICAN AMERICAN,2025-02-19,2025-04-26,67,Y,Y,N,2025-05-03,3
ADC-XYZ-001-001-0336,ADC-XYZ-001,0336,001,Drug X 50mg,Drug X 50mg,Drug X 50mg,71,YEARS,65-74,M,WHITE,2025-03-27,2025-04-09,14,Y,Y,N,2025-04-25,1
ADC-XYZ-001-001-0341,ADC-XYZ-001,0341,001,Placebo,Placebo,Placebo,55,YEARS,18-64,M,BLACK OR AFRICAN AMERICAN,2025-07-11,2025-09-03,55,Y,Y,N,2025-07-14,4
ADC-XYZ-001-001-0347,ADC-XYZ-001,0347,001,Drug X 50mg,Drug X 50mg,Drug X 50mg,75,YEARS,>=75,M,WHITE,2025-09-05,2025-09-28,24,Y,Y,N,2025-09-24,4
ADC-XYZ-001-001-0354,ADC-XYZ-001,0354,001,Drug X 50mg,Drug X 50mg,Drug X 50mg,41,YEARS,18-64,M,WHITE,2025-06-24,2025-09-12,81,Y,Y,N,2025-08-12,3
ADC-XYZ-001-001-0356,ADC-XYZ-001,0356,001,Drug X 50mg,Drug X 50mg,Drug X 50mg,83,YEARS,>=75,F,BLACK OR AFRICAN AMERICAN,2025-07-12,2025-09-24,75,Y,Y,N,2025-08-27,3
ADC-XYZ-001-001-0369,ADC-XYZ-001,0369,001,Drug X 50mg,Drug X 50mg,Drug X 50mg,31,YEARS,18-64,F,WHITE,2025-01-25,2025-04-13,79,Y,Y,N,2025-03-28,3
ADC-XYZ-001-001-0375,ADC-XYZ-001,0375,001,Drug X 50mg,Drug X 50mg,Drug X 50mg,36,YEARS,18-64,F,WHITE,2025-06-28,2025-07-04,7,Y,Y,N,,
ADC-XYZ-001-001-0376,ADC-XYZ-001,0376,001,Placebo,Placebo,Placebo,82,YEARS,>=75,M,BLACK OR AFRICAN AMERICAN,2025-09-05,2025-09-13,9,Y,Y,N,2025-09-19,2
ADC-XYZ-001-001-0382,ADC-XYZ-001,0382,001,Placebo,Placebo,Placebo,32,YEARS,18-64,M,WHITE,2025-06-19,2025-06-26,8,Y,Y,N,,
ADC-XYZ-001-001-0388,ADC-XYZ-001,0388,001,Placebo,Placebo,Placebo,62,YEARS,18-64,M,WHITE,2025-06-04,2025-07-05,32,Y,Y,N,2025-06-14,5
ADC-XYZ-001-001-0389,ADC-XYZ-001,0389,001,Placebo,Placebo,Placebo,49,YEARS,18-64,F,WHITE,2025-03-17,2025-05-28,73,Y,Y,N,2025-05-28,2
ADC-XYZ-001-001-0392,ADC-XYZ-001,0392,001,Placebo,Placebo,Placebo,42,YEARS,18-64,M,BLACK OR AFRICAN AMERICAN,2025-10-09,2025-12-04,57,Y,Y,N,2025-11-05,2
ADC-XYZ-001-001-0396,ADC-XYZ-001,0396,001,Drug X 50mg,Drug X 50mg,Drug X 50mg,65,YEARS,65-74,M,WHITE,2025-06-27,2025-09-15,81,Y,Y,N,2025-06-27,3
ADC-XYZ-001-001-0398,ADC-XYZ-001,0398,001,Placebo,Placebo,Placebo,48,YEARS,18-64,M,WHITE,2025-06-05,2025-07-28,54,Y,Y,N,2025-06-18,5
ADC-XYZ-001-001-0401,ADC-XYZ-001,0401,001,Placebo,Placebo,Placebo,23,YEARS,18-64,F,BLACK OR AFRICAN AMERICAN,2025-09-14,2025-11-04,52,Y,Y,N,2025-11-09,2
ADC-XYZ-001-001-0403,ADC-XYZ-001,0403,001,Placebo,Placebo,Placebo,50,YEARS,18-64,F,WHITE,2025-03-29,2025-05-07,40,Y,Y,N,2025-04-01,5
ADC-XYZ-001-001-0412,ADC-XYZ-001,0412,001,Placebo,Placebo,Placebo,45,YEARS,18-64,F,BLACK OR AFRICAN AMERICAN,2025-09-03,2025-10-05,33,Y,Y,N,2025-09-27,3
ADC-XYZ-001-001-0415,ADC-XYZ-001,0415,001,Placebo,Placebo,Placebo,56,YEARS,18-64,F,ASIAN,2025-05-22,2025-07-22,62,Y,Y,N,2025-06-21,2
ADC-XYZ-001-001-0418,ADC-XYZ-001,0418,001,Placebo,Placebo,Placebo,73,YEARS,65-74,F,BLACK OR AFRICAN AMERICAN,2025-08-20,2025-09-17,29,Y,Y,N,,
ADC-XYZ-001-001-0419,ADC-XYZ-001,0419,001,Drug X 50mg,Drug X 50mg,Drug X 50mg,33,YEARS,18-64,F,WHITE,2025-05-16,2025-07-22,68,Y,Y,N,2025-06-29,2
ADC-XYZ-001-001-0420,ADC-XYZ-001,0420,001,Drug X 50mg,Drug X 50mg,Drug X 50mg,43,YEARS,18-64,F,ASIAN,2025-07-12,2025-08-11,31,Y,Y,N,2025-08-28,2
ADC-XYZ-001-001-0428,ADC-XYZ-001,0428,001,Drug X 50mg,Drug X 50mg,Drug X 50mg,68,YEARS,65-74,F,WHITE,2025-08-14,2025-10-24,72,Y,Y,N,2025-09-30,2
ADC-XYZ-001-001-0429,ADC-XYZ-001,0429,001,Placebo,Placebo,Placebo,27,YEARS,18-64,F,WHITE,2025-09-28,2025-12-14,78,Y,Y,N,2025-11-24,3
ADC-XYZ-001-001-0431,ADC-XYZ-001,0431,001,Placebo,Placebo,Placebo,28,YEARS,18-64,F,OTHER,2025-08-01,2025-09-23,54,Y,Y,N,2025-10-18,2
ADC-XYZ-001-001-0432,ADC-XYZ-001,0432,001,Drug X 50mg,Drug X 50mg,Drug X 50mg,47,YEARS,18-64,F,WHITE,2025-07-19,2025-08-02,15,Y,Y,Y,2025-08-09,4
ADC-XYZ-001-001-0440,ADC-XYZ-001,0440,001,Drug X 50mg,Drug X 50mg,Drug X 50mg,31,YEARS,18-64,F,WHITE,2025-10-01,2025-11-11,42,Y,Y,N,2025-10-30,4
ADC-XYZ-001-001-0446,ADC-XYZ-001,0446,001,Placebo,Placebo,Placebo,49,YEARS,18-64,F,WHITE,2025-04-11,2025-07-02,83,Y,Y,N,2025-04-26,3
ADC-XYZ-001-001-0449,ADC-XYZ-001,0449,001,Placebo,Placebo,Placebo,43,YEARS,18-64,F,WHITE,2025-04-08,2025-06-19,73,Y,Y,N,,
ADC-XYZ-001-001-0451,ADC-XYZ-001,0451,001,Placebo,Placebo,Placebo,83,YEARS,>=75,F,WHITE,2025-08-06,2025-08-27,22,Y,Y,N,,
ADC-XYZ-001-001-0454,ADC-XYZ-001,0454,001,Drug X 50mg,Drug X 50mg,Drug X 50mg,30,YEARS,18-64,M,WHITE,2025-07-13,2025-09-19,69,Y,Y,N,2025-09-10,4
ADC-XYZ-001-001-0456,ADC-XYZ-001,0456,001,Placebo,Placebo,Placebo,23,YEARS,18-64,F,OTHER,2025-04-22,2025-05-02,11,Y,Y,N,2025-05-08,5
ADC-XYZ-001-001-0463,ADC-XYZ-001,0463,001,Drug X 50mg,Drug X 50mg,Drug X 50mg,69,YEARS,65-74,F,WHITE,2025-05-27,2025-07-17,52,Y,Y,Y,2025-07-06,3
ADC-XYZ-001-001-0469,ADC-XYZ-001,0469,001,Placebo,Placebo,Placebo,54,YEARS,18-64,M,WHITE,2025-09-05,2025-11-23,80,Y,Y,N,,
ADC-XYZ-001-001-0472,ADC-XYZ-001,0472,001,Drug X 50mg,Drug X 50mg,Drug X 50mg,27,YEARS,18-64,M,ASIAN,2025-01-22,2025-02-14,24,Y,Y,N,2025-02-08,3
ADC-XYZ-001-001-0478,ADC-XYZ-001,0478,001,Placebo,Placebo,Placebo,45,YEARS,18-64,M,ASIAN,2025-06-15,2025-07-27,43,Y,Y,Y,2025-08-17,3
ADC-XYZ-001-001-0479,ADC-XYZ-001,0479,001,Placebo,Placebo,Placebo,51,YEARS,18-64,M,ASIAN,2025-10-26,2025-11-24,30,Y,Y,N,2025-11-15,3
ADC-XYZ-001-001-0481,ADC-XYZ-001,0481,001,Drug X 50mg,Drug X 50mg,Drug X 50mg,43,YEARS,18-64,M,WHITE,2025-01-23,2025-03-23,60,Y,Y,N,2025-01-30,5
ADC-XYZ-001-001-0482,ADC-XYZ-001,0482,001,Drug X 50mg,Drug X 50mg,Drug X 50mg,38,YEARS,18-64,F,ASIAN,2025-01-06,2025-03-20,74,Y,Y,N,2025-01-10,1
ADC-XYZ-001-001-0486,ADC-XYZ-001,0486,001,Drug X 50mg,Drug X 50mg,Drug X 50mg,48,YEARS,18-64,F,WHITE,2025-08-19,2025-10-17,60,Y,Y,N,2025-09-11,2
ADC-XYZ-001-001-0491,ADC-XYZ-001,0491,001,Placebo,Placebo,Placebo,79,YEARS,>=75,M,WHITE,2025-04-09,2025-06-06,59,Y,Y,N,2025-06-03,4
ADC-XYZ-001-001-0493,ADC-XYZ-001,0493,001,Drug X 50mg,Drug X 50mg,Drug X 50mg,74,YEARS,65-74,F,ASIAN,2025-10-22,2025-11-11,21,Y,Y,N,,
ADC-XYZ-001-001-0497,ADC-XYZ-001,0497,001,Placebo,Placebo,Placebo,84,YEARS,>=75,F,WHITE,2025-06-14,2025-07-29,46,Y,Y,N,2025-07-03,1
ADC-XYZ-001-002-0002,ADC-XYZ-001,0002,002,Placebo,Placebo,Placebo,69,YEARS,65-74,F,BLACK OR AFRICAN AMERICAN,2025-04-02,2025-05-03,32,Y,Y,N,2025-04-27,3
ADC-XYZ-001-002-0008,ADC-XYZ-001,0008,002,Drug X 50mg,Drug X 50mg,Drug X 50mg,85,YEARS,>=75,F,ASIAN,2025-01-18,2025-04-09,82,Y,Y,N,2025-04-11,3
ADC-XYZ-001-002-0013,ADC-XYZ-001,0013,002,Drug X 50mg,Drug X 50mg,Drug X 50mg,56,YEARS,18-64,F,WHITE,2025-02-14,2025-05-04,80,Y,Y,N,2025-05-05,2
ADC-XYZ-001-002-0015,ADC-XYZ-001,0015,002,Drug X 50mg,Drug X 50mg,Drug X 50mg,72,YEARS,65-74,M,WHITE,2025-08-01,2025-10-11,72,Y,Y,N,2025-08-01,2
ADC-XYZ-001-002-0017,ADC-XYZ-001,0017,002,Drug X 50mg,Drug X 50mg,Drug X 50mg,36,YEARS,18-64,M,WHITE,2025-01-07,2025-03-13,66,Y,Y,N,2025-02-13,5
ADC-XYZ-001-002-0026,ADC-XYZ-001,0026,002,Placebo,Placebo,Placebo,75,YEARS,>=75,F,WHITE,2025-04-03,2025-05-17,45,Y,Y,N,2025-04-13,3
ADC-XYZ-001-002-0035,ADC-XYZ-001,0035,002,Drug X 50mg,Drug X 50mg,Drug X 50mg,80,YEARS,>=75,M,WHITE,2025-03-20,2025-03-30,11,Y,Y,N,,
ADC-XYZ-001-002-0036,ADC-XYZ-001,0036,002,Placebo,Placebo,Placebo,36,YEARS,18-64,M,ASIAN,2025-03-15,2025-05-20,67,Y,Y,N,2025-03-23,1
ADC-XYZ-001-002-0038,ADC-XYZ-001,0038,002,Placebo,Placebo,Placebo,40,YEARS,18-64,M,ASIAN,2025-04-29,2025-05-14,16,Y,Y,N,2025-04-29,5
ADC-XYZ-001-002-0040,ADC-XYZ-001,0040,002,Drug X 50mg,Drug X 50mg,Drug X 50mg,22,YEARS,18-64,F,WHITE,2025-10-13,2025-12-04,53,Y,Y,N,2025-11-23,2
ADC-XYZ-001-002-0042,ADC-XYZ-001,0042,002,Drug X 50mg,Drug X 50mg,Drug X 50mg,32,YEARS,18-64,F,WHITE,2025-07-31,2025-09-20,52,Y,Y,N,2025-08-27,1
ADC-XYZ-001-002-0044,ADC-XYZ-001,0044,002,Placebo,Placebo,Placebo,33,YEARS,18-64,M,ASIAN,2025-06-30,2025-08-15,47,Y,Y,N,2025-07-21,3
ADC-XYZ-001-002-0045,ADC-XYZ-001,0045,002,Drug X 50mg,Drug X 50mg,Drug X 50mg,27,YEARS,18-64,M,ASIAN,2025-03-17,2025-04-23,38,Y,Y,N,2025-05-11,1
ADC-XYZ-001-002-0047,ADC-XYZ-001,0047,002,Placebo,Placebo,Placebo,56,YEARS,18-64,M,WHITE,2025-04-20,2025-06-03,45,Y,Y,N,2025-04-26,4
ADC-XYZ-001-002-0048,ADC-XYZ-001,0048,002,Drug X 50mg,Drug X 50mg,Drug X 50mg,60,YEARS,18-64,F,BLACK OR AFRICAN AMERICAN,2025-09-06,2025-09-28,23,Y,Y,N,2025-09-15,3
ADC-XYZ-001-002-0051,ADC-XYZ-001,0051,002,Placebo,Placebo,Placebo,53,YEARS,18-64,F,WHITE,2025-04-07,2025-05-31,55,Y,Y,N,2025-05-16,4
ADC-XYZ-001-002-0066,ADC-XYZ-001,0066,002,Drug X 50mg,Drug X 50mg,Drug X 50mg,30,YEARS,18-64,F,WHITE,2025-10-18,2025-12-09,53,Y,Y,N,2025-11-24,1
ADC-XYZ-001-002-0094,ADC-XYZ-001,0094,002,Drug X 50mg,Drug X 50mg,Drug X 50mg,22,YEARS,18-64,F,WHITE,2025-08-21,2025-11-01,73,Y,Y,N,2025-10-27,1
ADC-XYZ-001-002-0099,ADC-XYZ-001,0099,002,Drug X 50mg,Drug X 50mg,Drug X 50mg,24,YEARS,18-64,M,BLACK OR AFRICAN AMERICAN,2025-04-29,2025-05-28,30,Y,Y,N,2025-05-27,4
ADC-XYZ-001-002-0102,ADC-XYZ-001,0102,002,Drug X 50mg,Drug X 50mg,Drug X 50mg,69,YEARS,65-74,F,OTHER,2025-04-03,2025-05-09,37,Y,Y,N,2025-04-08,5
ADC-XYZ-001-002-0118,ADC-XYZ-001,0118,002,Drug X 50mg,Drug X 50mg,Drug X 50mg,33,YEARS,18-64,F,WHITE,2025-09-02,2025-11-08,68,Y,Y,N,2025-09-18,3
ADC-XYZ-001-002-0119,ADC-XYZ-001,0119,002,Drug X 50mg,Drug X 50mg,Drug X 50mg,63,YEARS,18-64,F,WHITE,2025-09-25,2025-10-28,34,Y,Y,N,2025-09-27,3
ADC-XYZ-001-002-0131,ADC-XYZ-001,0131,002,Drug X 50mg,Drug X 50mg,Drug X 50mg,72,YEARS,65-74,M,OTHER,2025-08-29,2025-11-09,73,Y,Y,N,2025-11-24,3
ADC-XYZ-001-002-0138,ADC-XYZ-001,0138,002,Placebo,Placebo,Placebo,71,YEARS,65-74,F,OTHER,2025-06-19,2025-07-23,35,Y,Y,N,2025-07-06,2
ADC-XYZ-001-002-0142,ADC-XYZ-001,0142,002,Placebo,Placebo,Placebo,25,YEARS,18-64,F,BLACK OR AFRICAN AMERICAN,2025-03-24,2025-04-16,24,Y,Y,N,2025-04-24,4
ADC-XYZ-001-002-0144,ADC-XYZ-001,0144,002,Placebo,Placebo,Placebo,59,YEARS,18-64,F,WHITE,2025-05-27,2025-06-20,25,Y,Y,N,2025-06-20,3
ADC-XYZ-001-002-0145,ADC-XYZ-001,0145,002,Placebo,Placebo,Placebo,29,YEARS,18-64,M,WHITE,2025-02-28,2025-05-19,81,Y,Y,N,2025-03-15,3
ADC-XYZ-001-002-0149,ADC-XYZ-001,0149,002,Placebo,Placebo,Placebo,52,YEARS,18-64,F,BLACK OR AFRICAN AMERICAN,2025-02-24,2025-05-09,75,Y,Y,N,,
ADC-XYZ-001-002-0153,ADC-XYZ-001,0153,002,Placebo,Placebo,Placebo,81,YEARS,>=75,F,OTHER,2025-03-30,2025-05-13,45,Y,Y,N,2025-04-11,5
ADC-XYZ-001-002-0156,ADC-XYZ-001,0156,002,Drug X 50mg,Drug X 50mg,Drug X 50mg,72,YEARS,65-74,F,WHITE,2025-09-22,2025-11-26,66,Y,Y,N,2025-11-12,3
ADC-XYZ-001-002-0169,ADC-XYZ-001,0169,002,Placebo,Placebo,Placebo,51,YEARS,18-64,F,WHITE,2025-06-02,2025-08-15,75,Y,Y,N,2025-07-21,1
ADC-XYZ-001-002-0185,ADC-XYZ-001,0185,002,Placebo,Placebo,Placebo,62,YEARS,18-64,F,OTHER,2025-02-01,2025-02-28,28,Y,Y,N,,
ADC-XYZ-001-002-0188,ADC-XYZ-001,0188,002,Placebo,Placebo,Placebo,75,YEARS,>=75,M,WHITE,2025-03-17,2025-05-03,48,Y,Y,N,2025-05-13,2
ADC-XYZ-001-002-0190,ADC-XYZ-001,0190,002,Placebo,Placebo,Placebo,76,YEARS,>=75,F,WHITE,2025-01-17,2025-02-02,17,Y,Y,N,,
ADC-XYZ-001-002-0193,ADC-XYZ-001,0193,002,Drug X 50mg,Drug X 50mg,Drug X 50mg,32,YEARS,18-64,M,WHITE,2025-08-10,2025-10-21,73,Y,Y,N,2025-08-19,3
ADC-XYZ-001-002-0194,ADC-XYZ-001,0194,002,Placebo,Placebo,Placebo,42,YEARS,18-64,M,WHITE,2025-04-29,2025-07-04,67,Y,Y,N,2025-05-07,3
ADC-XYZ-001-002-0197,ADC-XYZ-001,0197,002,Placebo,Placebo,Placebo,56,YEARS,18-64,M,WHITE,2025-05-29,2025-07-07,40,Y,Y,N,2025-06-02,4
ADC-XYZ-001-002-0201,ADC-XYZ-001,0201,002,Placebo,Placebo,Placebo,50,YEARS,18-64,F,WHITE,2025-02-02,2025-03-23,50,Y,Y,N,,
ADC-XYZ-001-002-0203,ADC-XYZ-001,0203,002,Drug X 50mg,Drug X 50mg,Drug X 50mg,66,YEARS,65-74,F,ASIAN,2025-07-29,2025-10-19,83,Y,Y,Y,2025-08-15,3
ADC-XYZ-001-002-0209,ADC-XYZ-001,0209,002,Drug X 50mg,Drug X 50mg,Drug X 50mg,26,YEARS,18-64,F,ASIAN,2025-01-13,2025-03-01,48,Y,Y,N,2025-03-11,1
ADC-XYZ-001-002-0210,ADC-XYZ-001,0210,002,Placebo,Placebo,Placebo,30,YEARS,18-64,F,ASIAN,2025-10-15,2025-11-11,28,Y,Y,N,2025-10-28,2
ADC-XYZ-001-002-0215,ADC-XYZ-001,0215,002,Drug X 50mg,Drug X 50mg,Drug X 50mg,82,YEARS,>=75,F,WHITE,2025-09-26,2025-10-13,18,Y,Y,N,2025-10-03,5
ADC-XYZ-001-002-0223,ADC-XYZ-001,0223,002,Drug X 50mg,Drug X 50mg,Drug X 50mg,25,YEARS,18-64,M,BLACK OR AFRICAN AMERICAN,2025-02-04,2025-03-17,42,Y,Y,N,2025-02-09,1
ADC-XYZ-001-002-0240,ADC-XYZ-001,0240,002,Placebo,Placebo,Placebo,75,YEARS,>=75,M,WHITE,2025-06-12,2025-08-28,78,Y,Y,N,2025-06-27,2
ADC-XYZ-001-002-0241,ADC-XYZ-001,0241,002,Drug X 50mg,Drug X 50mg,Drug X 50mg,29,YEARS,18-64,F,BLACK OR AFRICAN AMERICAN,2025-06-27,2025-09-16,82,Y,Y,N,,
ADC-XYZ-001-002-0244,ADC-XYZ-001,0244,002,Placebo,Placebo,Placebo,46,YEARS,18-64,F,WHITE,2025-02-08,2025-02-22,15,Y,Y,N,2025-02-18,4
ADC-XYZ-001-002-0263,ADC-XYZ-001,0263,002,Drug X 50mg,Drug X 50mg,Drug X 50mg,20,YEARS,18-64,F,BLACK OR AFRICAN AMERICAN,2025-07-07,2025-07-22,16,Y,Y,N,,
ADC-XYZ-001-002-0276,ADC-XYZ-001,0276,002,Drug X 50mg,Drug X 50mg,Drug X 50mg,73,YEARS,65-74,M,WHITE,2025-01-04,2025-02-03,31,Y,Y,N,2025-02-04,2
ADC-XYZ-001-002-0279,ADC-XYZ-001,0279,002,Drug X 50mg,Drug X 50mg,Drug X 50mg,56,YEARS,18-64,F,WHITE,2025-07-21,2025-08-23,34,Y,Y,N,,
ADC-XYZ-001-002-0283,ADC-XYZ-001,0283,002,Placebo,Placebo,Placebo,32,YEARS,18-64,M,WHITE,2025-06-18,2025-08-03,47,Y,Y,N,2025-07-04,2
ADC-XYZ-001-002-0309,ADC-XYZ-001,0309,002,Placebo,Placebo,Placebo,73,YEARS,65-74,F,WHITE,2025-09-17,2025-09-30,14,Y,Y,N,,
ADC-XYZ-001-002-0318,ADC-XYZ-001,0318,002,Placebo,Placebo,Placebo,85,YEARS,>=75,F,ASIAN,2025-08-09,2025-10-23,76,Y,Y,N,2025-11-14,1
ADC-XYZ-001-002-0328,ADC-XYZ-001,0328,002,Placebo,Placebo,Placebo,62,YEARS,18-64,M,BLACK OR AFRICAN AMERICAN,2025-03-19,2025-04-05,18,Y,Y,N,2025-03-22,4
ADC-XYZ-001-002-0335,ADC-XYZ-001,0335,002,Placebo,Placebo,Placebo,82,YEARS,>=75,F,WHITE,2025-03-31,2025-04-27,28,Y,Y,Y,,
ADC-XYZ-001-002-0342,ADC-XYZ-001,0342,002,Drug X 50mg,Drug X 50mg,Drug X 50mg,51,YEARS,18-64,M,WHITE,2025-07-12,2025-07-23,12,Y,Y,N,2025-08-04,3
ADC-XYZ-001-002-0344,ADC-XYZ-001,0344,002,Placebo,Placebo,Placebo,56,YEARS,18-64,F,WHITE,2025-05-13,2025-06-03,22,Y,Y,N,,
ADC-XYZ-001-002-0357,ADC-XYZ-001,0357,002,Drug X 50mg,Drug X 50mg,Drug X 50mg,74,YEARS,65-74,M,WHITE,2025-01-20,2025-04-10,81,Y,Y,N,,
ADC-XYZ-001-002-0361,ADC-XYZ-001,0361,002,Placebo,Placebo,Placebo,28,YEARS,18-64,M,BLACK OR AFRICAN AMERICAN,2025-05-28,2025-08-19,84,Y,Y,Y,,
ADC-XYZ-001-002-0364,ADC-XYZ-001,0364,002,Drug X 50mg,Drug X 50mg,Drug X 50mg,61,YEARS,18-64,F,ASIAN,2025-09-13,2025-11-22,71,Y,Y,N,2025-09-29,3
ADC-XYZ-001-002-0367,ADC-XYZ-001,0367,002,Placebo,Placebo,Placebo,71,YEARS,65-74,M,WHITE,2025-01-01,2025-02-25,56,Y,Y,N,2025-02-24,1
ADC-XYZ-001-002-0370,ADC-XYZ-001,0370,002,Drug X 50mg,Drug X 50mg,Drug X 50mg,53,YEARS,18-64,F,BLACK OR AFRICAN AMERICAN,2025-06-02,2025-08-14,74,Y,Y,N,2025-06-08,3
ADC-XYZ-001-002-0373,ADC-XYZ-001,0373,002,Placebo,Placebo,Placebo,75,YEARS,>=75,F,WHITE,2025-05-20,2025-06-01,13,Y,Y,N,2025-06-19,1
ADC-XYZ-001-002-0374,ADC-XYZ-001,0374,002,Drug X 50mg,Drug X 50mg,Drug X 50mg,57,YEARS,18-64,F,WHITE,2025-09-16,2025-09-26,11,Y,Y,N,2025-10-25,4
ADC-XYZ-001-002-0384,ADC-XYZ-001,0384,002,Drug X 50mg,Drug X 50mg,Drug X 50mg,29,YEARS,18-64,M,ASIAN,2025-10-13,2025-11-29,48,Y,Y,N,2025-11-02,1
ADC-XYZ-001-002-0385,ADC-XYZ-001,0385,002,Drug X 50mg,Drug X 50mg,Drug X 50mg,77,YEARS,>=75,M,ASIAN,2025-01-15,2025-03-25,70,Y,Y,N,2025-02-06,2
ADC-XYZ-001-002-0405,ADC-XYZ-001,0405,002,Drug X 50mg,Drug X 50mg,Drug X 50mg,51,YEARS,18-64,M,WHITE,2025-05-12,2025-06-30,50,Y,Y,N,2025-06-01,2
ADC-XYZ-001-002-0411,ADC-XYZ-001,0411,002,Drug X 50mg,Drug X 50mg,Drug X 50mg,47,YEARS,18-64,M,WHITE,2025-05-19,2025-07-01,44,Y,Y,N,2025-07-02,5
ADC-XYZ-001-002-0417,ADC-XYZ-001,0417,002,Drug X 50mg,Drug X 50mg,Drug X 50mg,63,YEARS,18-64,M,BLACK OR AFRICAN AMERICAN,2025-09-15,2025-10-04,20,Y,Y,N,2025-10-30,2
ADC-XYZ-001-002-0423,ADC-XYZ-001,0423,002,Placebo,Placebo,Placebo,48,YEARS,18-64,M,WHITE,2025-01-25,2025-02-04,11,Y,Y,N,2025-02-04,1
ADC-XYZ-001-002-0424,ADC-XYZ-001,0424,002,Drug X 50mg,Drug X 50mg,Drug X 50mg,22,YEARS,18-64,M,WHITE,2025-10-01,2025-11-13,44,Y,Y,N,2025-10-08,2
ADC-XYZ-001-002-0438,ADC-XYZ-001,0438,002,Placebo,Placebo,Placebo,60,YEARS,18-64,F,OTHER,2025-03-28,2025-06-12,77,Y,Y,N,2025-05-09,3
ADC-XYZ-001-002-0444,ADC-XYZ-001,0444,002,Placebo,Placebo,Placebo,29,YEARS,18-64,M,WHITE,2025-06-19,2025-08-22,65,Y,Y,N,,
ADC-XYZ-001-002-0457,ADC-XYZ-001,0457,002,Placebo,Placebo,Placebo,22,YEARS,18-64,F,BLACK OR AFRICAN AMERICAN,2025-08-24,2025-09-07,15,Y,Y,N,2025-08-30,3
ADC-XYZ-001-002-0458,ADC-XYZ-001,0458,002,Placebo,Placebo,Placebo,60,YEARS,18-64,M,ASIAN,2025-05-16,2025-07-31,77,Y,Y,N,2025-08-08,1
ADC-XYZ-001-002-0462,ADC-XYZ-001,0462,002,Placebo,Placebo,Placebo,50,YEARS,18-64,M,WHITE,2025-02-10,2025-03-31,50,Y,Y,N,,
ADC-XYZ-001-002-0464,ADC-XYZ-001,0464,002,Drug X 50mg,Drug X 50mg,Drug X 50mg,50,YEARS,18-64,F,BLACK OR AFRICAN AMERICAN,2025-03-24,2025-06-01,70,Y,Y,N,2025-05-22,2
ADC-XYZ-001-002-0471,ADC-XYZ-001,0471,002,Placebo,Placebo,Placebo,76,YEARS,>=75,M,WHITE,2025-04-23,2025-05-24,32,Y,Y,N,2025-05-17,5
ADC-XYZ-001-002-0476,ADC-XYZ-001,0476,002,Placebo,Placebo,Placebo,44,YEARS,18-64,M,WHITE,2025-08-10,2025-09-30,52,Y,Y,N,2025-08-10,4
ADC-XYZ-001-002-0494,ADC-XYZ-001,0494,002,Placebo,Placebo,Placebo,43,YEARS,18-64,M,WHITE,2025-09-07,2025-09-27,21,Y,Y,N,2025-09-16,1
ADC-XYZ-001-002-0496,ADC-XYZ-001,0496,002,Drug X 50mg,Drug X 50mg,Drug X 50mg,82,YEARS,>=75,F,BLACK OR AFRICAN AMERICAN,2025-01-21,2025-03-08,47,Y,Y,N,2025-02-14,3
ADC-XYZ-001-002-0498,ADC-XYZ-001,0498,002,Drug X 50mg,Drug X 50mg,Drug X 50mg,67,YEARS,65-74,F,WHITE,2025-05-17,2025-05-29,13,Y,Y,N,2025-05-30,3
ADC-XYZ-001-003-0001,ADC-XYZ-001,0001,003,Drug X 50mg,Drug X 50mg,Drug X 50mg,56,YEARS,18-64,M,OTHER,2025-04-08,2025-06-20,74,Y,Y,N,2025-04-14,5
ADC-XYZ-001-003-0004,ADC-XYZ-001,0004,003,Placebo,Placebo,Placebo,43,YEARS,18-64,F,ASIAN,2025-04-16,2025-05-09,24,Y,Y,N,2025-05-01,4
ADC-XYZ-001-003-0006,ADC-XYZ-001,0006,003,Placebo,Placebo,Placebo,60,YEARS,18-64,F,BLACK OR AFRICAN AMERICAN,2025-05-12,2025-05-21,10,Y,Y,N,2025-05-27,2
ADC-XYZ-001-003-0011,ADC-XYZ-001,0011,003,Placebo,Placebo,Placebo,47,YEARS,18-64,M,WHITE,2025-05-04,2025-06-13,41,Y,Y,N,2025-05-16,2
ADC-XYZ-001-003-0012,ADC-XYZ-001,0012,003,Placebo,Placebo,Placebo,23,YEARS,18-64,M,BLACK OR AFRICAN AMERICAN,2025-02-01,2025-04-13,72,Y,Y,N,2025-03-21,1
ADC-XYZ-001-003-0016,ADC-XYZ-001,0016,003,Drug X 50mg,Drug X 50mg,Drug X 50mg,53,YEARS,18-64,M,OTHER,2025-08-14,2025-10-27,75,Y,Y,N,2025-08-22,2
ADC-XYZ-001-003-0019,ADC-XYZ-001,0019,003,Drug X 50mg,Drug X 50mg,Drug X 50mg,49,YEARS,18-64,F,ASIAN,2025-05-22,2025-07-03,43,Y,Y,N,,
ADC-XYZ-001-003-0023,ADC-XYZ-001,0023,003,Drug X 50mg,Drug X 50mg,Drug X 50mg,43,YEARS,18-64,M,WHITE,2025-08-05,2025-08-28,24,Y,Y,N,2025-09-13,4
ADC-XYZ-001-003-0027,ADC-XYZ-001,0027,003,Placebo,Placebo,Placebo,22,YEARS,18-64,F,WHITE,2025-06-09,2025-07-18,40,Y,Y,N,,
ADC-XYZ-001-003-0028,ADC-XYZ-001,0028,003,Drug X 50mg,Drug X 50mg,Drug X 50mg,32,YEARS,18-64,M,OTHER,2025-09-23,2025-11-09,48,Y,Y,N,,
ADC-XYZ-001-003-0037,ADC-XYZ-001,0037,003,Placebo,Placebo,Placebo,52,YEARS,18-64,F,OTHER,2025-05-28,2025-07-04,38,Y,Y,N,2025-07-09,2
ADC-XYZ-001-003-0039,ADC-XYZ-001,0039,003,Drug X 50mg,Drug X 50mg,Drug X 50mg,39,YEARS,18-64,M,WHITE,2025-07-21,2025-10-05,77,Y,Y,N,2025-08-15,1
ADC-XYZ-001-003-0046,ADC-XYZ-001,0046,003,Placebo,Placebo,Placebo,57,YEARS,18-64,M,WHITE,2025-02-27,2025-03-31,33,Y,Y,Y,2025-03-05,2
ADC-XYZ-001-003-0055,ADC-XYZ-001,0055,003,Placebo,Placebo,Placebo,38,YEARS,18-64,M,BLACK OR AFRICAN AMERICAN,2025-02-07,2025-03-27,49,Y,Y,N,2025-02-15,5
ADC-XYZ-001-003-0059,ADC-XYZ-001,0059,003,Drug X 50mg,Drug X 50mg,Drug X 50mg,60,YEARS,18-64,M,BLACK OR AFRICAN AMERICAN,2025-05-13,2025-06-01,20,Y,Y,Y,2025-05-14,3
ADC-XYZ-001-003-0069,ADC-XYZ-001,0069,003,Drug X 50mg,Drug X 50mg,Drug X 50mg,72,YEARS,65-74,M,WHITE,2025-07-12,2025-08-18,38,Y,Y,N,2025-08-18,4
ADC-XYZ-001-003-0070,ADC-XYZ-001,0070,003,Placebo,Placebo,Placebo,45,YEARS,18-64,F,BLACK OR AFRICAN AMERICAN,2025-10-06,2025-11-16,42,Y,Y,N,2025-11-15,1
ADC-XYZ-001-003-0073,ADC-XYZ-001,0073,003,Drug X 50mg,Drug X 50mg,Drug X 50mg,40,YEARS,18-64,M,WHITE,2025-05-18,2025-06-19,33,Y,Y,N,2025-05-22,4
ADC-XYZ-001-003-0074,ADC-XYZ-001,0074,003,Drug X 50mg,Drug X 50mg,Drug X 50mg,77,YEARS,>=75,M,WHITE,2025-08-22,2025-09-15,25,Y,Y,N,2025-10-04,4
ADC-XYZ-001-003-0079,ADC-XYZ-001,0079,003,Drug X 50mg,Drug X 50mg,Drug X 50mg,49,YEARS,18-64,F,WHITE,2025-01-09,2025-01-19,11,Y,Y,N,,
ADC-XYZ-001-003-0082,ADC-XYZ-001,0082,003,Placebo,Placebo,Placebo,45,YEARS,18-64,F,WHITE,2025-10-17,2025-11-01,16,Y,Y,N,2025-11-30,1
ADC-XYZ-001-003-0085,ADC-XYZ-001,0085,003,Drug X 50mg,Drug X 50mg,Drug X 50mg,32,YEARS,18-64,M,OTHER,2025-03-23,2025-04-14,23,Y,Y,N,2025-04-15,1
ADC-XYZ-001-003-0090,ADC-XYZ-001,0090,003,Drug X 50mg,Drug X 50mg,Drug X 50mg,46,YEARS,18-64,F,BLACK OR AFRICAN AMERICAN,2025-05-05,2025-05-13,9,Y,Y,N,2025-06-12,1
ADC-XYZ-001-003-0096,ADC-XYZ-001,0096,003,Drug X 50mg,Drug X 50mg,Drug X 50mg,49,YEARS,18-64,F,WHITE,2025-01-20,2025-03-20,60,Y,Y,N,2025-02-10,4
ADC-XYZ-001-003-0100,ADC-XYZ-001,0100,003,Placebo,Placebo,Placebo,70,YEARS,65-74,F,BLACK OR AFRICAN AMERICAN,2025-09-23,2025-10-11,19,Y,Y,N,2025-10-23,3
ADC-XYZ-001-003-0110,ADC-XYZ-001,0110,003,Drug X 50mg,Drug X 50mg,Drug X 50mg,42,YEARS,18-64,M,OTHER,2025-09-28,2025-11-28,62,Y,Y,N,,
ADC-XYZ-001-003-0121,ADC-XYZ-001,0121,003,Drug X 50mg,Drug X 50mg,Drug X 50mg,60,YEARS,18-64,F,WHITE,2025-07-04,2025-09-04,63,Y,Y,N,,
ADC-XYZ-001-003-0123,ADC-XYZ-001,0123,003,Placebo,Placebo,Placebo,43,YEARS,18-64,M,ASIAN,2025-01-04,2025-02-17,45,Y,Y,N,2025-01-15,1
ADC-XYZ-001-003-0132,ADC-XYZ-001,0132,003,Placebo,Placebo,Placebo,39,YEARS,18-64,M,WHITE,2025-02-28,2025-03-25,26,Y,Y,N,2025-02-28,2
ADC-XYZ-001-003-0134,ADC-XYZ-001,0134,003,Drug X 50mg,Drug X 50mg,Drug X 50mg,50,YEARS,18-64,F,WHITE,2025-01-22,2025-04-04,73,Y,Y,N,2025-02-16,3
ADC-XYZ-001-003-0136,ADC-XYZ-001,0136,003,Drug X 50mg,Drug X 50mg,Drug X 50mg,37,YEARS,18-64,F,ASIAN,2025-04-25,2025-05-03,9,Y,Y,N,2025-04-26,4
ADC-XYZ-001-003-0137,ADC-XYZ-001,0137,003,Placebo,Placebo,Placebo,32,YEARS,18-64,F,WHITE,2025-02-25,2025-03-30,34,Y,Y,N,2025-04-17,1
ADC-XYZ-001-003-0139,ADC-XYZ-001,0139,003,Drug X 50mg,Drug X 50mg,Drug X 50mg,27,YEARS,18-64,M,WHITE,2025-03-23,2025-05-18,57,Y,Y,N,2025-04-21,3
ADC-XYZ-001-003-0147,ADC-XYZ-001,0147,003,Drug X 50mg,Drug X 50mg,Drug X 50mg,31,YEARS,18-64,F,WHITE,2025-08-13,2025-09-24,43,Y,Y,N,,
ADC-XYZ-001-003-0148,ADC-XYZ-001,0148,003,Placebo,Placebo,Placebo,46,YEARS,18-64,M,WHITE,2025-09-07,2025-11-04,59,Y,Y,N,2025-11-14,4
ADC-XYZ-001-003-0150,ADC-XYZ-001,0150,003,Drug X 50mg,Drug X 50mg,Drug X 50mg,20,YEARS,18-64,F,BLACK OR AFRICAN AMERICAN,2025-10-27,2025-12-27,62,Y,Y,N,,
ADC-XYZ-001-003-0162,ADC-XYZ-001,0162,003,Placebo,Placebo,Placebo,70,YEARS,65-74,M,BLACK OR AFRICAN AMERICAN,2025-08-08,2025-09-24,48,Y,Y,N,2025-09-17,3
ADC-XYZ-001-003-0166,ADC-XYZ-001,0166,003,Placebo,Placebo,Placebo,83,YEARS,>=75,F,BLACK OR AFRICAN AMERICAN,2025-10-26,2025-12-26,62,Y,Y,N,2025-12-09,4
ADC-XYZ-001-003-0172,ADC-XYZ-001,0172,003,Placebo,Placebo,Placebo,45,YEARS,18-64,M,WHITE,2025-04-07,2025-04-16,10,Y,Y,N,2025-05-04,3
ADC-XYZ-001-003-0174,ADC-XYZ-001,0174,003,Placebo,Placebo,Placebo,75,YEARS,>=75,F,WHITE,2025-07-26,2025-10-05,72,Y,Y,N,2025-10-06,2
ADC-XYZ-001-003-0180,ADC-XYZ-001,0180,003,Placebo,Placebo,Placebo,35,YEARS,18-64,F,WHITE,2025-09-05,2025-09-12,8,Y,Y,N,2025-10-07,2
ADC-XYZ-001-003-0181,ADC-XYZ-001,0181,003,Placebo,Placebo,Placebo,24,YEARS,18-64,F,BLACK OR AFRICAN AMERICAN,2025-09-15,2025-10-14,30,Y,Y,N,2025-09-16,2
ADC-XYZ-001-003-0182,ADC-XYZ-001,0182,003,Placebo,Placebo,Placebo,31,YEARS,18-64,M,BLACK OR AFRICAN AMERICAN,2025-01-30,2025-02-12,14,Y,Y,Y,2025-01-31,3
ADC-XYZ-001-003-0184,ADC-XYZ-001,0184,003,Drug X 50mg,Drug X 50mg,Drug X 50mg,32,YEARS,18-64,F,BLACK OR AFRICAN AMERICAN,2025-01-12,2025-02-05,25,Y,Y,N,2025-01-18,5
ADC-XYZ-001-003-0196,ADC-XYZ-001,0196,003,Drug X 50mg,Drug X 50mg,Drug X 50mg,43,YEARS,18-64,F,WHITE,2025-06-15,2025-08-10,57,Y,Y,N,2025-08-28,2
ADC-XYZ-001-003-0206,ADC-XYZ-001,0206,003,Drug X 50mg,Drug X 50mg,Drug X 50mg,70,YEARS,65-74,F,WHITE,2025-07-16,2025-10-05,82,Y,Y,N,2025-08-07,1
ADC-XYZ-001-003-0219,ADC-XYZ-001,0219,003,Drug X 50mg,Drug X 50mg,Drug X 50mg,63,YEARS,18-64,F,WHITE,2025-06-15,2025-07-11,27,Y,Y,N,2025-06-15,3
ADC-XYZ-001-003-0230,ADC-XYZ-001,0230,003,Drug X 50mg,Drug X 50mg,Drug X 50mg,84,YEARS,>=75,M,BLACK OR AFRICAN AMERICAN,2025-05-06,2025-05-29,24,Y,Y,N,2025-05-08,3
ADC-XYZ-001-003-0233,ADC-XYZ-001,0233,003,Drug X 50mg,Drug X 50mg,Drug X 50mg,22,YEARS,18-64,M,WHITE,2025-08-23,2025-08-30,8,Y,Y,N,2025-08-24,4
ADC-XYZ-001-003-0239,ADC-XYZ-001,0239,003,Placebo,Placebo,Placebo,34,YEARS,18-64,F,OTHER,2025-05-26,2025-06-27,33,Y,Y,N,2025-07-14,1
ADC-XYZ-001-003-0254,ADC-XYZ-001,0254,003,Drug X 50mg,Drug X 50mg,Drug X 50mg,18,YEARS,18-64,F,WHITE,2025-03-04,2025-04-18,46,Y,Y,N,,
ADC-XYZ-001-003-0255,ADC-XYZ-001,0255,003,Placebo,Placebo,Placebo,27,YEARS,18-64,F,WHITE,2025-06-29,2025-08-25,58,Y,Y,N,2025-07-07,3
ADC-XYZ-001-003-0258,ADC-XYZ-001,0258,003,Placebo,Placebo,Placebo,41,YEARS,18-64,M,WHITE,2025-06-16,2025-07-25,40,Y,Y,N,,
ADC-XYZ-001-003-0262,ADC-XYZ-001,0262,003,Drug X 50mg,Drug X 50mg,Drug X 50mg,48,YEARS,18-64,F,OTHER,2025-01-15,2025-01-24,10,Y,Y,N,2025-01-30,2
ADC-XYZ-001-003-0266,ADC-XYZ-001,0266,003,Placebo,Placebo,Placebo,63,YEARS,18-64,F,WHITE,2025-09-11,2025-09-23,13,Y,Y,N,2025-09-12,3
ADC-XYZ-001-003-0274,ADC-XYZ-001,0274,003,Placebo,Placebo,Placebo,25,YEARS,18-64,F,OTHER,2025-05-29,2025-07-27,60,Y,Y,N,2025-05-29,2
ADC-XYZ-001-003-0275,ADC-XYZ-001,0275,003,Placebo,Placebo,Placebo,22,YEARS,18-64,F,ASIAN,2025-04-04,2025-06-13,71,Y,Y,N,,
ADC-XYZ-001-003-0277,ADC-XYZ-001,0277,003,Placebo,Placebo,Placebo,34,YEARS,18-64,F,BLACK OR AFRICAN AMERICAN,2025-09-23,2025-11-01,40,Y,Y,N,,
ADC-XYZ-001-003-0282,ADC-XYZ-001,0282,003,Placebo,Placebo,Placebo,72,YEARS,65-74,F,OTHER,2025-08-10,2025-08-18,9,Y,Y,N,2025-08-11,3
ADC-XYZ-001-003-0291,ADC-XYZ-001,0291,003,Placebo,Placebo,Placebo,76,YEARS,>=75,M,WHITE,2025-03-02,2025-04-03,33,Y,Y,N,2025-03-25,4
ADC-XYZ-001-003-0292,ADC-XYZ-001,0292,003,Drug X 50mg,Drug X 50mg,Drug X 50mg,36,YEARS,18-64,M,WHITE,2025-05-13,2025-05-20,8,Y,Y,N,,
ADC-XYZ-001-003-0293,ADC-XYZ-001,0293,003,Placebo,Placebo,Placebo,74,YEARS,65-74,M,WHITE,2025-10-01,2025-12-03,64,Y,Y,Y,2025-10-26,3
ADC-XYZ-001-003-0300,ADC-XYZ-001,0300,003,Placebo,Placebo,Placebo,23,YEARS,18-64,M,OTHER,2025-05-12,2025-07-14,64,Y,Y,N,2025-05-25,1
ADC-XYZ-001-003-0301,ADC-XYZ-001,0301,003,Drug X 50mg,Drug X 50mg,Drug X 50mg,63,YEARS,18-64,F,ASIAN,2025-05-26,2025-07-29,65,Y,Y,N,2025-08-19,3
ADC-XYZ-001-003-0302,ADC-XYZ-001,0302,003,Drug X 50mg,Drug X 50mg,Drug X 50mg,52,YEARS,18-64,M,ASIAN,2025-07-21,2025-09-17,59,Y,Y,N,,
ADC-XYZ-001-003-0308,ADC-XYZ-001,0308,003,Placebo,Placebo,Placebo,43,YEARS,18-64,M,WHITE,2025-09-05,2025-11-01,58,Y,Y,N,2025-10-12,2
ADC-XYZ-001-003-0310,ADC-XYZ-001,0310,003,Drug X 50mg,Drug X 50mg,Drug X 50mg,71,YEARS,65-74,M,BLACK OR AFRICAN AMERICAN,2025-02-06,2025-04-11,65,Y,Y,N,2025-03-23,4
ADC-XYZ-001-003-0314,ADC-XYZ-001,0314,003,Placebo,Placebo,Placebo,27,YEARS,18-64,M,WHITE,2025-04-02,2025-06-01,61,Y,Y,N,2025-04-27,3
ADC-XYZ-001-003-0319,ADC-XYZ-001,0319,003,Drug X 50mg,Drug X 50mg,Drug X 50mg,65,YEARS,65-74,F,BLACK OR AFRICAN AMERICAN,2025-05-13,2025-07-02,51,Y,Y,N,,
ADC-XYZ-001-003-0327,ADC-XYZ-001,0327,003,Drug X 50mg,Drug X 50mg,Drug X 50mg,36,YEARS,18-64,F,WHITE,2025-09-10,2025-09-28,19,Y,Y,N,2025-09-14,5
ADC-XYZ-001-003-0333,ADC-XYZ-001,0333,003,Drug X 50mg,Drug X 50mg,Drug X 50mg,32,YEARS,18-64,M,WHITE,2025-08-22,2025-11-04,75,Y,Y,N,2025-08-30,1
ADC-XYZ-001-003-0337,ADC-XYZ-001,0337,003,Drug X 50mg,Drug X 50mg,Drug X 50mg,19,YEARS,18-64,M,BLACK OR AFRICAN AMERICAN,2025-10-03,2025-11-13,42,Y,Y,N,2025-10-07,3
ADC-XYZ-001-003-0338,ADC-XYZ-001,0338,003,Drug X 50mg,Drug X 50mg,Drug X 50mg,24,YEARS,18-64,F,WHITE,2025-08-17,2025-10-10,55,Y,Y,N,2025-09-03,5
ADC-XYZ-001-003-0343,ADC-XYZ-001,0343,003,Drug X 50mg,Drug X 50mg,Drug X 50mg,80,YEARS,>=75,F,ASIAN,2025-04-01,2025-04-13,13,Y,Y,N,,
ADC-XYZ-001-003-0348,ADC-XYZ-001,0348,003,Drug X 50mg,Drug X 50mg,Drug X 50mg,85,YEARS,>=75,F,OTHER,2025-09-06,2025-11-18,74,Y,Y,N,2025-10-11,4
ADC-XYZ-001-003-0349,ADC-XYZ-001,0349,003,Drug X 50mg,Drug X 50mg,Drug X 50mg,58,YEARS,18-64,M,BLACK OR AFRICAN AMERICAN,2025-09-22,2025-11-26,66,Y,Y,N,,
ADC-XYZ-001-003-0350,ADC-XYZ-001,0350,003,Drug X 50mg,Drug X 50mg,Drug X 50mg,62,YEARS,18-64,F,WHITE,2025-05-20,2025-07-23,65,Y,Y,N,2025-06-30,4
ADC-XYZ-001-003-0352,ADC-XYZ-001,0352,003,Placebo,Placebo,Placebo,80,YEARS,>=75,F,WHITE,2025-03-17,2025-05-30,75,Y,Y,N,,
ADC-XYZ-001-003-0353,ADC-XYZ-001,0353,003,Placebo,Placebo,Placebo,75,YEARS,>=75,M,BLACK OR AFRICAN AMERICAN,2025-07-12,2025-09-15,66,Y,Y,N,2025-09-16,1
ADC-XYZ-001-003-0355,ADC-XYZ-001,0355,003,Placebo,Placebo,Placebo,57,YEARS,18-64,M,WHITE,2025-03-11,2025-06-01,83,Y,Y,N,2025-05-13,3
ADC-XYZ-001-003-0358,ADC-XYZ-001,0358,003,Placebo,Placebo,Placebo,35,YEARS,18-64,F,WHITE,2025-07-24,2025-08-15,23,Y,Y,N,,
ADC-XYZ-001-003-0359,ADC-XYZ-001,0359,003,Placebo,Placebo,Placebo,75,YEARS,>=75,M,WHITE,2025-03-19,2025-04-16,29,Y,Y,N,2025-04-20,2
ADC-XYZ-001-003-0360,ADC-XYZ-001,0360,003,Drug X 50mg,Drug X 50mg,Drug X 50mg,66,YEARS,65-74,M,WHITE,2025-06-18,2025-08-03,47,Y,Y,N,2025-07-24,2
ADC-XYZ-001-003-0372,ADC-XYZ-001,0372,003,Drug X 50mg,Drug X 50mg,Drug X 50mg,19,YEARS,18-64,F,OTHER,2025-02-11,2025-04-04,53,Y,Y,N,2025-04-30,2
ADC-XYZ-001-003-0379,ADC-XYZ-001,0379,003,Drug X 50mg,Drug X 50mg,Drug X 50mg,54,YEARS,18-64,F,WHITE,2025-07-08,2025-08-15,39,Y,Y,N,2025-07-31,3
ADC-XYZ-001-003-0380,ADC-XYZ-001,0380,003,Placebo,Placebo,Placebo,31,YEARS,18-64,M,ASIAN,2025-04-12,2025-05-18,37,Y,Y,N,2025-05-03,4
ADC-XYZ-001-003-0391,ADC-XYZ-001,0391,003,Placebo,Placebo,Placebo,21,YEARS,18-64,F,BLACK OR AFRICAN AMERICAN,2025-04-10,2025-05-25,46,Y,Y,N,2025-04-12,3
ADC-XYZ-001-003-0393,ADC-XYZ-001,0393,003,Drug X 50mg,Drug X 50mg,Drug X 50mg,82,YEARS,>=75,F,WHITE,2025-09-19,2025-10-30,42,Y,Y,N,2025-09-23,3
ADC-XYZ-001-003-0394,ADC-XYZ-001,0394,003,Drug X 50mg,Drug X 50mg,Drug X 50mg,85,YEARS,>=75,F,WHITE,2025-10-24,2025-12-24,62,Y,Y,N,2025-12-17,1
ADC-XYZ-001-003-0397,ADC-XYZ-001,0397,003,Drug X 50mg,Drug X 50mg,Drug X 50mg,61,YEARS,18-64,M,WHITE,2025-04-08,2025-06-07,61,Y,Y,N,2025-04-29,4
ADC-XYZ-001-003-0410,ADC-XYZ-001,0410,003,Placebo,Placebo,Placebo,69,YEARS,65-74,F,ASIAN,2025-06-02,2025-06-18,17,Y,Y,N,,
ADC-XYZ-001-003-0422,ADC-XYZ-001,0422,003,Drug X 50mg,Drug X 50mg,Drug X 50mg,21,YEARS,18-64,M,WHITE,2025-03-21,2025-06-12,84,Y,Y,N,2025-07-03,1
ADC-XYZ-001-003-0426,ADC-XYZ-001,0426,003,Drug X 50mg,Drug X 50mg,Drug X 50mg,42,YEARS,18-64,M,WHITE,2025-07-06,2025-08-29,55,Y,Y,N,2025-09-24,1
ADC-XYZ-001-003-0430,ADC-XYZ-001,0430,003,Placebo,Placebo,Placebo,56,YEARS,18-64,M,OTHER,2025-07-14,2025-07-29,16,Y,Y,N,2025-07-15,3
ADC-XYZ-001-003-0434,ADC-XYZ-001,0434,003,Drug X 50mg,Drug X 50mg,Drug X 50mg,21,YEARS,18-64,M,WHITE,2025-04-20,2025-04-27,8,Y,Y,N,,
ADC-XYZ-001-003-0435,ADC-XYZ-001,0435,003,Drug X 50mg,Drug X 50mg,Drug X 50mg,41,YEARS,18-64,M,WHITE,2025-02-14,2025-04-13,59,Y,Y,N,2025-03-18,3
ADC-XYZ-001-003-0442,ADC-XYZ-001,0442,003,Placebo,Placebo,Placebo,51,YEARS,18-64,M,OTHER,2025-02-26,2025-05-09,73,Y,Y,N,2025-04-19,3
ADC-XYZ-001-003-0447,ADC-XYZ-001,0447,003,Drug X 50mg,Drug X 50mg,Drug X 50mg,71,YEARS,65-74,M,WHITE,2025-09-29,2025-10-25,27,Y,Y,N,,
ADC-XYZ-001-003-0448,ADC-XYZ-001,0448,003,Placebo,Placebo,Placebo,52,YEARS,18-64,F,OTHER,2025-01-30,2025-02-22,24,Y,Y,N,2025-03-05,5
ADC-XYZ-001-003-0450,ADC-XYZ-001,0450,003,Drug X 50mg,Drug X 50mg,Drug X 50mg,31,YEARS,18-64,M,WHITE,2025-03-19,2025-03-28,10,Y,Y,N,2025-04-28,3
ADC-XYZ-001-003-0452,ADC-XYZ-001,0452,003,Drug X 50mg,Drug X 50mg,Drug X 50mg,58,YEARS,18-64,F,WHITE,2025-01-12,2025-03-16,64,Y,Y,N,2025-01-18,5
ADC-XYZ-001-003-0460,ADC-XYZ-001,0460,003,Placebo,Placebo,Placebo,47,YEARS,18-64,M,WHITE,2025-07-03,2025-08-11,40,Y,Y,N,,
ADC-XYZ-001-003-0461,ADC-XYZ-001,0461,003,Drug X 50mg,Drug X 50mg,Drug X 50mg,77,YEARS,>=75,F,WHITE,2025-01-14,2025-02-09,27,Y,Y,N,2025-01-19,3
ADC-XYZ-001-003-0465,ADC-XYZ-001,0465,003,Placebo,Placebo,Placebo,38,YEARS,18-64,F,OTHER,2025-10-17,2025-12-23,68,Y,Y,N,2025-11-13,3
ADC-XYZ-001-003-0466,ADC-XYZ-001,0466,003,Placebo,Placebo,Placebo,53,YEARS,18-64,F,BLACK OR AFRICAN AMERICAN,2025-07-27,2025-08-11,16,Y,Y,N,2025-09-08,2
ADC-XYZ-001-003-0467,ADC-XYZ-001,0467,003,Drug X 50mg,Drug X 50mg,Drug X 50mg,44,YEARS,18-64,M,WHITE,2025-07-30,2025-09-14,47,Y,Y,N,2025-09-07,1
ADC-XYZ-001-003-0477,ADC-XYZ-001,0477,003,Placebo,Placebo,Placebo,74,YEARS,65-74,M,WHITE,2025-01-16,2025-02-14,30,Y,Y,N,,
ADC-XYZ-001-003-0484,ADC-XYZ-001,0484,003,Placebo,Placebo,Placebo,21,YEARS,18-64,M,WHITE,2025-07-18,2025-10-02,77,Y,Y,N,2025-07-23,4
ADC-XYZ-001-003-0485,ADC-XYZ-001,0485,003,Drug X 50mg,Drug X 50mg,Drug X 50mg,56,YEARS,18-64,M,BLACK OR AFRICAN AMERICAN,2025-06-17,2025-07-14,28,Y,Y,N,2025-07-06,5
ADC-XYZ-001-003-0488,ADC-XYZ-001,0488,003,Drug X 50mg,Drug X 50mg,Drug X 50mg,50,YEARS,18-64,F,WHITE,2025-07-23,2025-09-25,65,Y,Y,N,,
ADC-XYZ-001-003-0489,ADC-XYZ-001,0489,003,Drug X 50mg,Drug X 50mg,Drug X 50mg,68,YEARS,65-74,F,BLACK OR AFRICAN AMERICAN,2025-08-17,2025-09-19,34,Y,Y,N,2025-10-05,2
ADC-XYZ-001-003-0492,ADC-XYZ-001,0492,003,Placebo,Placebo,Placebo,74,YEARS,65-74,F,BLACK OR AFRICAN AMERICAN,2025-10-18,2025-11-08,22,Y,Y,N,,
ADC-XYZ-001-004-0003,ADC-XYZ-001,0003,004,Drug X 50mg,Drug X 50mg,Drug X 50mg,50,YEARS,18-64,F,BLACK OR AFRICAN AMERICAN,2025-10-23,2025-12-23,62,Y,Y,N,2025-11-24,1
ADC-XYZ-001-004-0005,ADC-XYZ-001,0005,004,Placebo,Placebo,Placebo,32,YEARS,18-64,M,WHITE,2025-06-13,2025-06-24,12,Y,Y,N,2025-07-05,1
ADC-XYZ-001-004-0022,ADC-XYZ-001,0022,004,Placebo,Placebo,Placebo,65,YEARS,65-74,F,ASIAN,2025-01-18,2025-02-02,16,Y,Y,N,,
ADC-XYZ-001-004-0024,ADC-XYZ-001,0024,004,Drug X 50mg,Drug X 50mg,Drug X 50mg,49,YEARS,18-64,M,WHITE,2025-08-05,2025-08-14,10,Y,Y,Y,2025-08-11,2
ADC-XYZ-001-004-0029,ADC-XYZ-001,0029,004,Drug X 50mg,Drug X 50mg,Drug X 50mg,81,YEARS,>=75,F,WHITE,2025-07-12,2025-09-07,58,Y,Y,N,,
ADC-XYZ-001-004-0030,ADC-XYZ-001,0030,004,Drug X 50mg,Drug X 50mg,Drug X 50mg,37,YEARS,18-64,F,ASIAN,2025-01-23,2025-03-01,38,Y,Y,N,2025-02-24,3
ADC-XYZ-001-004-0031,ADC-XYZ-001,0031,004,Placebo,Placebo,Placebo,59,YEARS,18-64,M,BLACK OR AFRICAN AMERICAN,2025-05-26,2025-06-09,15,Y,Y,N,2025-05-27,4
ADC-XYZ-001-004-0034,ADC-XYZ-001,0034,004,Drug X 50mg,Drug X 50mg,Drug X 50mg,68,YEARS,65-74,M,WHITE,2025-01-19,2025-02-18,31,Y,Y,N,,
ADC-XYZ-001-004-0041,ADC-XYZ-001,0041,004,Placebo,Placebo,Placebo,47,YEARS,18-64,F,BLACK OR AFRICAN AMERICAN,2025-02-08,2025-02-25,18,Y,Y,N,2025-02-11,3
ADC-XYZ-001-004-0052,ADC-XYZ-001,0052,004,Placebo,Placebo,Placebo,67,YEARS,65-74,F,ASIAN,2025-09-25,2025-10-20,26,Y,Y,N,2025-10-11,1
ADC-XYZ-001-004-0061,ADC-XYZ-001,0061,004,Drug X 50mg,Drug X 50mg,Drug X 50mg,24,YEARS,18-64,M,BLACK OR AFRICAN AMERICAN,2025-08-21,2025-11-10,82,Y,Y,N,2025-10-20,2
ADC-XYZ-001-004-0063,ADC-XYZ-001,0063,004,Drug X 50mg,Drug X 50mg,Drug X 50mg,68,YEARS,65-74,M,WHITE,2025-03-29,2025-06-05,69,Y,Y,N,2025-03-31,3
ADC-XYZ-001-004-0068,ADC-XYZ-001,0068,004,Placebo,Placebo,Placebo,23,YEARS,18-64,M,WHITE,2025-09-28,2025-10-22,25,Y,Y,N,2025-10-29,3
ADC-XYZ-001-004-0072,ADC-XYZ-001,0072,004,Placebo,Placebo,Placebo,42,YEARS,18-64,M,BLACK OR AFRICAN AMERICAN,2025-10-21,2025-12-07,48,Y,Y,N,2025-11-02,4
ADC-XYZ-001-004-0075,ADC-XYZ-001,0075,004,Drug X 50mg,Drug X 50mg,Drug X 50mg,33,YEARS,18-64,M,WHITE,2025-10-28,2025-12-10,44,Y,Y,N,2025-10-30,3
ADC-XYZ-001-004-0078,ADC-XYZ-001,0078,004,Drug X 50mg,Drug X 50mg,Drug X 50mg,81,YEARS,>=75,M,OTHER,2025-09-15,2025-11-16,63,Y,Y,N,2025-11-02,3
ADC-XYZ-001-004-0080,ADC-XYZ-001,0080,004,Placebo,Placebo,Placebo,74,YEARS,65-74,M,WHITE,2025-05-12,2025-07-16,66,Y,Y,N,2025-05-12,3
ADC-XYZ-001-004-0081,ADC-XYZ-001,0081,004,Drug X 50mg,Drug X 50mg,Drug X 50mg,20,YEARS,18-64,M,WHITE,2025-04-27,2025-07-18,83,Y,Y,N,2025-08-12,1
ADC-XYZ-001-004-0084,ADC-XYZ-001,0084,004,Drug X 50mg,Drug X 50mg,Drug X 50mg,84,YEARS,>=75,F,WHITE,2025-07-06,2025-09-15,72,Y,Y,N,2025-07-25,5
ADC-XYZ-001-004-0092,ADC-XYZ-001,0092,004,Drug X 50mg,Drug X 50mg,Drug X 50mg,82,YEARS,>=75,M,BLACK OR AFRICAN AMERICAN,2025-06-18,2025-08-06,50,Y,Y,N,2025-07-17,4
ADC-XYZ-001-004-0095,ADC-XYZ-001,0095,004,Drug X 50mg,Drug X 50mg,Drug X 50mg,33,YEARS,18-64,M,BLACK OR AFRICAN AMERICAN,2025-10-03,2025-10-16,14,Y,Y,N,2025-10-13,3
ADC-XYZ-001-004-0097,ADC-XYZ-001,0097,004,Placebo,Placebo,Placebo,47,YEARS,18-64,F,BLACK OR AFRICAN AMERICAN,2025-02-23,2025-05-08,75,Y,Y,N,,
ADC-XYZ-001-004-0101,ADC-XYZ-001,0101,004,Drug X 50mg,Drug X 50mg,Drug X 50mg,55,YEARS,18-64,F,ASIAN,2025-04-04,2025-06-20,78,Y,Y,N,,
ADC-XYZ-001-004-0105,ADC-XYZ-001,0105,004,Drug X 50mg,Drug X 50mg,Drug X 50mg,51,YEARS,18-64,F,WHITE,2025-04-13,2025-06-11,60,Y,Y,N,,
ADC-XYZ-001-004-0106,ADC-XYZ-001,0106,004,Placebo,Placebo,Placebo,70,YEARS,65-74,F,WHITE,2025-01-05,2025-03-16,71,Y,Y,N,2025-01-06,2
ADC-XYZ-001-004-0116,ADC-XYZ-001,0116,004,Placebo,Placebo,Placebo,18,YEARS,18-64,M,WHITE,2025-07-25,2025-08-11,18,Y,Y,N,,
ADC-XYZ-001-004-0122,ADC-XYZ-001,0122,004,Drug X 50mg,Drug X 50mg,Drug X 50mg,21,YEARS,18-64,F,WHITE,2025-10-03,2025-10-12,10,Y,Y,N,2025-10-05,2
ADC-XYZ-001-004-0130,ADC-XYZ-001,0130,004,Drug X 50mg,Drug X 50mg,Drug X 50mg,20,YEARS,18-64,M,WHITE,2025-05-05,2025-07-22,79,Y,Y,N,2025-07-21,5
ADC-XYZ-001-004-0133,ADC-XYZ-001,0133,004,Drug X 50mg,Drug X 50mg,Drug X 50mg,36,YEARS,18-64,M,WHITE,2025-01-06,2025-02-20,46,Y,Y,N,2025-02-05,5
ADC-XYZ-001-004-0140,ADC-XYZ-001,0140,004,Drug X 50mg,Drug X 50mg,Drug X 50mg,27,YEARS,18-64,M,BLACK OR AFRICAN AMERICAN,2025-05-16,2025-05-26,11,Y,Y,N,2025-06-23,1
ADC-XYZ-001-004-0143,ADC-XYZ-001,0143,004,Placebo,Placebo,Placebo,60,YEARS,18-64,F,WHITE,2025-05-26,2025-07-08,44,Y,Y,Y,,
ADC-XYZ-001-004-0158,ADC-XYZ-001,0158,004,Placebo,Placebo,Placebo,57,YEARS,18-64,M,BLACK OR AFRICAN AMERICAN,2025-01-29,2025-04-13,75,Y,Y,N,2025-02-18,2
ADC-XYZ-001-004-0170,ADC-XYZ-001,0170,004,Drug X 50mg,Drug X 50mg,Drug X 50mg,77,YEARS,>=75,F,BLACK OR AFRICAN AMERICAN,2025-02-15,2025-02-24,10,Y,Y,N,2025-03-15,3
ADC-XYZ-001-004-0175,ADC-XYZ-001,0175,004,Placebo,Placebo,Placebo,52,YEARS,18-64,F,WHITE,2025-08-14,2025-09-10,28,Y,Y,N,2025-08-15,5
ADC-XYZ-001-004-0176,ADC-XYZ-001,0176,004,Placebo,Placebo,Placebo,50,YEARS,18-64,F,WHITE,2025-04-04,2025-05-21,48,Y,Y,N,2025-04-05,2
ADC-XYZ-001-004-0177,ADC-XYZ-001,0177,004,Drug X 50mg,Drug X 50mg,Drug X 50mg,49,YEARS,18-64,M,WHITE,2025-04-18,2025-05-29,42,Y,Y,N,,
ADC-XYZ-001-004-0178,ADC-XYZ-001,0178,004,Drug X 50mg,Drug X 50mg,Drug X 50mg,67,YEARS,65-74,M,WHITE,2025-10-22,2025-12-20,60,Y,Y,N,2025-12-14,1
ADC-XYZ-001-004-0191,ADC-XYZ-001,0191,004,Placebo,Placebo,Placebo,70,YEARS,65-74,F,OTHER,2025-04-25,2025-06-29,66,Y,Y,N,2025-07-28,2
ADC-XYZ-001-004-0202,ADC-XYZ-001,0202,004,Placebo,Placebo,Placebo,80,YEARS,>=75,F,OTHER,2025-09-01,2025-10-20,50,Y,Y,N,2025-10-29,2
ADC-XYZ-001-004-0205,ADC-XYZ-001,0205,004,Drug X 50mg,Drug X 50mg,Drug X 50mg,78,YEARS,>=75,F,BLACK OR AFRICAN AMERICAN,2025-03-20,2025-06-03,76,Y,Y,N,2025-03-28,2
ADC-XYZ-001-004-0208,ADC-XYZ-001,0208,004,Placebo,Placebo,Placebo,42,YEARS,18-64,M,BLACK OR AFRICAN AMERICAN,2025-07-28,2025-08-08,12,Y,Y,N,2025-08-19,2
ADC-XYZ-001-004-0212,ADC-XYZ-001,0212,004,Placebo,Placebo,Placebo,84,YEARS,>=75,M,WHITE,2025-08-03,2025-09-05,34,Y,Y,N,2025-08-05,4
ADC-XYZ-001-004-0218,ADC-XYZ-001,0218,004,Drug X 50mg,Drug X 50mg,Drug X 50mg,22,YEARS,18-64,F,WHITE,2025-03-27,2025-04-12,17,Y,Y,N,2025-04-13,2
ADC-XYZ-001-004-0220,ADC-XYZ-001,0220,004,Drug X 50mg,Drug X 50mg,Drug X 50mg,83,YEARS,>=75,F,WHITE,2025-07-15,2025-09-23,71,Y,Y,N,2025-09-02,4
ADC-XYZ-001-004-0221,ADC-XYZ-001,0221,004,Drug X 50mg,Drug X 50mg,Drug X 50mg,22,YEARS,18-64,F,WHITE,2025-09-21,2025-12-06,77,Y,Y,Y,2025-10-31,2
ADC-XYZ-001-004-0226,ADC-XYZ-001,0226,004,Drug X 50mg,Drug X 50mg,Drug X 50mg,72,YEARS,65-74,F,WHITE,2025-03-22,2025-05-15,55,Y,Y,N,2025-05-19,2
ADC-XYZ-001-004-0228,ADC-XYZ-001,0228,004,Drug X 50mg,Drug X 50mg,Drug X 50mg,71,YEARS,65-74,F,OTHER,2025-01-02,2025-03-12,70,Y,Y,Y,2025-01-16,3
ADC-XYZ-001-004-0231,ADC-XYZ-001,0231,004,Placebo,Placebo,Placebo,72,YEARS,65-74,F,ASIAN,2025-03-08,2025-05-09,63,Y,Y,N,2025-03-28,3
ADC-XYZ-001-004-0232,ADC-XYZ-001,0232,004,Drug X 50mg,Drug X 50mg,Drug X 50mg,33,YEARS,18-64,M,OTHER,2025-10-16,2025-12-09,55,Y,Y,N,2026-01-06,2
ADC-XYZ-001-004-0234,ADC-XYZ-001,0234,004,Placebo,Placebo,Placebo,69,YEARS,65-74,M,WHITE,2025-05-25,2025-07-30,67,Y,Y,N,2025-06-29,1
ADC-XYZ-001-004-0235,ADC-XYZ-001,0235,004,Placebo,Placebo,Placebo,79,YEARS,>=75,F,WHITE,2025-03-17,2025-05-30,75,Y,Y,N,2025-05-01,4
ADC-XYZ-001-004-0236,ADC-XYZ-001,0236,004,Drug X 50mg,Drug X 50mg,Drug X 50mg,69,YEARS,65-74,M,BLACK OR AFRICAN AMERICAN,2025-03-22,2025-04-16,26,Y,Y,N,,
ADC-XYZ-001-004-0237,ADC-XYZ-001,0237,004,Drug X 50mg,Drug X 50mg,Drug X 50mg,68,YEARS,65-74,F,WHITE,2025-08-11,2025-08-26,16,Y,Y,N,2025-08-12,4
ADC-XYZ-001-004-0238,ADC-XYZ-001,0238,004,Placebo,Placebo,Placebo,74,YEARS,65-74,M,WHITE,2025-09-06,2025-10-29,54,Y,Y,N,2025-09-23,3
ADC-XYZ-001-004-0242,ADC-XYZ-001,0242,004,Drug X 50mg,Drug X 50mg,Drug X 50mg,52,YEARS,18-64,F,ASIAN,2025-02-16,2025-03-04,17,Y,Y,N,2025-02-22,3
ADC-XYZ-001-004-0245,ADC-XYZ-001,0245,004,Drug X 50mg,Drug X 50mg,Drug X 50mg,57,YEARS,18-64,M,WHITE,2025-03-03,2025-05-22,81,Y,Y,N,2025-04-16,1
ADC-XYZ-001-004-0246,ADC-XYZ-001,0246,004,Drug X 50mg,Drug X 50mg,Drug X 50mg,25,YEARS,18-64,F,WHITE,2025-03-23,2025-03-31,9,Y,Y,N,2025-04-24,4
ADC-XYZ-001-004-0249,ADC-XYZ-001,0249,004,Drug X 50mg,Drug X 50mg,Drug X 50mg,45,YEARS,18-64,F,WHITE,2025-07-15,2025-08-31,48,Y,Y,N,2025-08-12,5
ADC-XYZ-001-004-0261,ADC-XYZ-001,0261,004,Drug X 50mg,Drug X 50mg,Drug X 50mg,38,YEARS,18-64,M,OTHER,2025-09-16,2025-11-21,67,Y,Y,N,,
ADC-XYZ-001-004-0267,ADC-XYZ-001,0267,004,Placebo,Placebo,Placebo,34,YEARS,18-64,M,BLACK OR AFRICAN AMERICAN,2025-03-30,2025-04-26,28,Y,Y,N,2025-04-12,1
ADC-XYZ-001-004-0269,ADC-XYZ-001,0269,004,Placebo,Placebo,Placebo,46,YEARS,18-64,F,WHITE,2025-03-01,2025-05-21,82,Y,Y,N,2025-03-02,3
ADC-XYZ-001-004-0278,ADC-XYZ-001,0278,004,Drug X 50mg,Drug X 50mg,Drug X 50mg,67,YEARS,65-74,M,BLACK OR AFRICAN AMERICAN,2025-01-05,2025-02-11,38,Y,Y,N,2025-01-14,4
ADC-XYZ-001-004-0280,ADC-XYZ-001,0280,004,Drug X 50mg,Drug X 50mg,Drug X 50mg,49,YEARS,18-64,F,WHITE,2025-05-15,2025-06-09,26,Y,Y,N,2025-05-31,2
ADC-XYZ-001-004-0285,ADC-XYZ-001,0285,004,Drug X 50mg,Drug X 50mg,Drug X 50mg,68,YEARS,65-74,M,WHITE,2025-04-05,2025-04-30,26,Y,Y,N,,
ADC-XYZ-001-004-0287,ADC-XYZ-001,0287,004,Placebo,Placebo,Placebo,47,YEARS,18-64,M,WHITE,2025-04-21,2025-06-15,56,Y,Y,N,2025-07-09,1
ADC-XYZ-001-004-0290,ADC-XYZ-001,0290,004,Placebo,Placebo,Placebo,48,YEARS,18-64,M,WHITE,2025-05-30,2025-07-20,52,Y,Y,N,,
ADC-XYZ-001-004-0297,ADC-XYZ-001,0297,004,Placebo,Placebo,Placebo,57,YEARS,18-64,M,ASIAN,2025-10-02,2025-10-25,24,Y,Y,N,2025-10-23,3
ADC-XYZ-001-004-0307,ADC-XYZ-001,0307,004,Drug X 50mg,Drug X 50mg,Drug X 50mg,74,YEARS,65-74,F,WHITE,2025-09-21,2025-11-23,64,Y,Y,N,,
ADC-XYZ-001-004-0311,ADC-XYZ-001,0311,004,Placebo,Placebo,Placebo,84,YEARS,>=75,F,BLACK OR AFRICAN AMERICAN,2025-05-24,2025-07-07,45,Y,Y,N,,
ADC-XYZ-001-004-0315,ADC-XYZ-001,0315,004,Drug X 50mg,Drug X 50mg,Drug X 50mg,59,YEARS,18-64,F,BLACK OR AFRICAN AMERICAN,2025-09-04,2025-09-14,11,Y,Y,N,,
ADC-XYZ-001-004-0321,ADC-XYZ-001,0321,004,Placebo,Placebo,Placebo,26,YEARS,18-64,M,BLACK OR AFRICAN AMERICAN,2025-01-23,2025-04-09,77,Y,Y,N,2025-02-20,1
ADC-XYZ-001-004-0322,ADC-XYZ-001,0322,004,Drug X 50mg,Drug X 50mg,Drug X 50mg,46,YEARS,18-64,M,ASIAN,2025-08-01,2025-10-07,68,Y,Y,N,,
ADC-XYZ-001-004-0324,ADC-XYZ-001,0324,004,Drug X 50mg,Drug X 50mg,Drug X 50mg,62,YEARS,18-64,M,WHITE,2025-03-24,2025-05-17,55,Y,Y,N,2025-04-14,4
ADC-XYZ-001-004-0325,ADC-XYZ-001,0325,004,Drug X 50mg,Drug X 50mg,Drug X 50mg,50,YEARS,18-64,F,WHITE,2025-02-11,2025-04-03,52,Y,Y,N,,
ADC-XYZ-001-004-0329,ADC-XYZ-001,0329,004,Drug X 50mg,Drug X 50mg,Drug X 50mg,53,YEARS,18-64,M,WHITE,2025-07-09,2025-08-09,32,Y,Y,N,,
ADC-XYZ-001-004-0330,ADC-XYZ-001,0330,004,Drug X 50mg,Drug X 50mg,Drug X 50mg,21,YEARS,18-64,M,BLACK OR AFRICAN AMERICAN,2025-03-24,2025-06-14,83,Y,Y,N,2025-04-15,3
ADC-XYZ-001-004-0331,ADC-XYZ-001,0331,004,Drug X 50mg,Drug X 50mg,Drug X 50mg,72,YEARS,65-74,M,BLACK OR AFRICAN AMERICAN,2025-01-30,2025-03-01,31,Y,Y,N,2025-02-07,1
ADC-XYZ-001-004-0334,ADC-XYZ-001,0334,004,Placebo,Placebo,Placebo,85,YEARS,>=75,F,OTHER,2025-05-23,2025-07-13,52,Y,Y,N,2025-05-26,2
ADC-XYZ-001-004-0340,ADC-XYZ-001,0340,004,Placebo,Placebo,Placebo,23,YEARS,18-64,M,WHITE,2025-05-27,2025-07-08,43,Y,Y,N,2025-06-21,2
ADC-XYZ-001-004-0345,ADC-XYZ-001,0345,004,Placebo,Placebo,Placebo,19,YEARS,18-64,M,ASIAN,2025-03-05,2025-04-28,55,Y,Y,N,2025-03-26,3
ADC-XYZ-001-004-0346,ADC-XYZ-001,0346,004,Placebo,Placebo,Placebo,76,YEARS,>=75,F,WHITE,2025-06-08,2025-08-24,78,Y,Y,N,2025-08-26,4
ADC-XYZ-001-004-0363,ADC-XYZ-001,0363,004,Drug X 50mg,Drug X 50mg,Drug X 50mg,59,YEARS,18-64,M,BLACK OR AFRICAN AMERICAN,2025-06-24,2025-08-20,58,Y,Y,N,2025-09-18,5
ADC-XYZ-001-004-0365,ADC-XYZ-001,0365,004,Placebo,Placebo,Placebo,70,YEARS,65-74,F,BLACK OR AFRICAN AMERICAN,2025-01-10,2025-02-02,24,Y,Y,N,,
ADC-XYZ-001-004-0368,ADC-XYZ-001,0368,004,Drug X 50mg,Drug X 50mg,Drug X 50mg,71,YEARS,65-74,F,BLACK OR AFRICAN AMERICAN,2025-03-02,2025-03-26,25,Y,Y,N,2025-03-06,4
ADC-XYZ-001-004-0377,ADC-XYZ-001,0377,004,Placebo,Placebo,Placebo,80,YEARS,>=75,F,WHITE,2025-05-29,2025-08-12,76,Y,Y,N,2025-06-06,1
ADC-XYZ-001-004-0383,ADC-XYZ-001,0383,004,Placebo,Placebo,Placebo,22,YEARS,18-64,F,ASIAN,2025-04-12,2025-06-10,60,Y,Y,N,2025-06-26,2
ADC-XYZ-001-004-0386,ADC-XYZ-001,0386,004,Drug X 50mg,Drug X 50mg,Drug X 50mg,22,YEARS,18-64,F,OTHER,2025-10-09,2025-12-20,73,Y,Y,N,2025-10-09,2
ADC-XYZ-001-004-0390,ADC-XYZ-001,0390,004,Drug X 50mg,Drug X 50mg,Drug X 50mg,25,YEARS,18-64,F,WHITE,2025-08-27,2025-10-29,64,Y,Y,N,2025-10-10,3
ADC-XYZ-001-004-0400,ADC-XYZ-001,0400,004,Drug X 50mg,Drug X 50mg,Drug X 50mg,59,YEARS,18-64,M,ASIAN,2025-04-15,2025-05-16,32,Y,Y,N,2025-04-21,3
ADC-XYZ-001-004-0402,ADC-XYZ-001,0402,004,Placebo,Placebo,Placebo,18,YEARS,18-64,F,WHITE,2025-08-16,2025-09-03,19,Y,Y,N,2025-08-26,2
ADC-XYZ-001-004-0406,ADC-XYZ-001,0406,004,Placebo,Placebo,Placebo,60,YEARS,18-64,F,WHITE,2025-06-28,2025-08-31,65,Y,Y,N,,
ADC-XYZ-001-004-0414,ADC-XYZ-001,0414,004,Drug X 50mg,Drug X 50mg,Drug X 50mg,26,YEARS,18-64,F,WHITE,2025-09-22,2025-12-12,82,Y,Y,N,2025-11-08,5
ADC-XYZ-001-004-0443,ADC-XYZ-001,0443,004,Placebo,Placebo,Placebo,70,YEARS,65-74,F,WHITE,2025-09-13,2025-11-09,58,Y,Y,N,2025-09-24,2
ADC-XYZ-001-004-0455,ADC-XYZ-001,0455,004,Placebo,Placebo,Placebo,25,YEARS,18-64,F,BLACK OR AFRICAN AMERICAN,2025-08-16,2025-09-09,25,Y,Y,N,2025-09-14,3
ADC-XYZ-001-004-0468,ADC-XYZ-001,0468,004,Drug X 50mg,Drug X 50mg,Drug X 50mg,29,YEARS,18-64,M,ASIAN,2025-08-08,2025-10-19,73,Y,Y,N,2025-09-11,2
ADC-XYZ-001-004-0470,ADC-XYZ-001,0470,004,Drug X 50mg,Drug X 50mg,Drug X 50mg,46,YEARS,18-64,M,BLACK OR AFRICAN AMERICAN,2025-03-08,2025-05-08,62,Y,Y,N,,
ADC-XYZ-001-004-0475,ADC-XYZ-001,0475,004,Drug X 50mg,Drug X 50mg,Drug X 50mg,50,YEARS,18-64,M,WHITE,2025-09-23,2025-11-10,49,Y,Y,N,2025-10-04,3
ADC-XYZ-001-004-0483,ADC-XYZ-001,0483,004,Placebo,Placebo,Placebo,49,YEARS,18-64,F,OTHER,2025-08-02,2025-08-09,8,Y,Y,N,2025-09-01,1
ADC-XYZ-001-004-0487,ADC-XYZ-001,0487,004,Drug X 50mg,Drug X 50mg,Drug X 50mg,32,YEARS,18-64,M,WHITE,2025-05-26,2025-08-05,72,Y,Y,N,2025-06-11,3
ADC-XYZ-001-004-0495,ADC-XYZ-001,0495,004,Placebo,Placebo,Placebo,64,YEARS,18-64,M,WHITE,2025-05-12,2025-06-24,44,Y,Y,N,2025-05-21,4
ADC-XYZ-001-005-0007,ADC-XYZ-001,0007,005,Drug X 50mg,Drug X 50mg,Drug X 50mg,76,YEARS,>=75,M,ASIAN,2025-02-06,2025-04-08,62,Y,Y,N,,
ADC-XYZ-001-005-0009,ADC-XYZ-001,0009,005,Drug X 50mg,Drug X 50mg,Drug X 50mg,51,YEARS,18-64,M,ASIAN,2025-04-05,2025-05-09,35,Y,Y,N,2025-04-17,3
ADC-XYZ-001-005-0010,ADC-XYZ-001,0010,005,Drug X 50mg,Drug X 50mg,Drug X 50mg,58,YEARS,18-64,M,WHITE,2025-08-25,2025-09-27,34,Y,Y,N,2025-08-26,3
ADC-XYZ-001-005-0018,ADC-XYZ-001,0018,005,Placebo,Placebo,Placebo,48,YEARS,18-64,F,WHITE,2025-01-08,2025-01-17,10,Y,Y,N,2025-02-14,1
ADC-XYZ-001-005-0020,ADC-XYZ-001,0020,005,Drug X 50mg,Drug X 50mg,Drug X 50mg,65,YEARS,65-74,F,WHITE,2025-08-09,2025-09-28,51,Y,Y,N,2025-09-23,3
ADC-XYZ-001-005-0025,ADC-XYZ-001,0025,005,Placebo,Placebo,Placebo,34,YEARS,18-64,F,WHITE,2025-01-20,2025-03-02,42,Y,Y,N,,
ADC-XYZ-001-005-0043,ADC-XYZ-001,0043,005,Placebo,Placebo,Placebo,58,YEARS,18-64,F,OTHER,2025-04-05,2025-05-17,43,Y,Y,N,2025-05-16,2
ADC-XYZ-001-005-0050,ADC-XYZ-001,0050,005,Placebo,Placebo,Placebo,22,YEARS,18-64,M,ASIAN,2025-08-06,2025-09-01,27,Y,Y,N,,
ADC-XYZ-001-005-0053,ADC-XYZ-001,0053,005,Drug X 50mg,Drug X 50mg,Drug X 50mg,80,YEARS,>=75,M,WHITE,2025-02-28,2025-05-02,64,Y,Y,N,,
ADC-XYZ-001-005-0054,ADC-XYZ-001,0054,005,Drug X 50mg,Drug X 50mg,Drug X 50mg,50,YEARS,18-64,F,WHITE,2025-03-13,2025-04-28,47,Y,Y,N,2025-05-10,2
ADC-XYZ-001-005-0056,ADC-XYZ-001,0056,005,Placebo,Placebo,Placebo,55,YEARS,18-64,F,WHITE,2025-08-11,2025-10-19,70,Y,Y,N,2025-08-11,4
ADC-XYZ-001-005-0057,ADC-XYZ-001,0057,005,Drug X 50mg,Drug X 50mg,Drug X 50mg,38,YEARS,18-64,M,ASIAN,2025-07-31,2025-09-22,54,Y,Y,N,2025-08-17,1
ADC-XYZ-001-005-0058,ADC-XYZ-001,0058,005,Placebo,Placebo,Placebo,82,YEARS,>=75,M,OTHER,2025-05-20,2025-06-29,41,Y,Y,N,2025-06-05,2
ADC-XYZ-001-005-0064,ADC-XYZ-001,0064,005,Drug X 50mg,Drug X 50mg,Drug X 50mg,51,YEARS,18-64,M,OTHER,2025-03-19,2025-04-21,34,Y,Y,N,2025-04-11,3
ADC-XYZ-001-005-0067,ADC-XYZ-001,0067,005,Drug X 50mg,Drug X 50mg,Drug X 50mg,67,YEARS,65-74,M,WHITE,2025-09-28,2025-10-04,7,Y,Y,N,2025-10-23,3
ADC-XYZ-001-005-0076,ADC-XYZ-001,0076,005,Drug X 50mg,Drug X 50mg,Drug X 50mg,66,YEARS,65-74,F,WHITE,2025-08-29,2025-09-30,33,Y,Y,N,2025-09-19,3
ADC-XYZ-001-005-0087,ADC-XYZ-001,0087,005,Placebo,Placebo,Placebo,79,YEARS,>=75,M,WHITE,2025-03-01,2025-04-25,56,Y,Y,N,2025-03-11,2
ADC-XYZ-001-005-0088,ADC-XYZ-001,0088,005,Placebo,Placebo,Placebo,28,YEARS,18-64,F,WHITE,2025-10-08,2025-11-18,42,Y,Y,N,2025-10-13,3
ADC-XYZ-001-005-0089,ADC-XYZ-001,0089,005,Drug X 50mg,Drug X 50mg,Drug X 50mg,78,YEARS,>=75,F,WHITE,2025-03-18,2025-05-06,50,Y,Y,N,2025-03-28,2
ADC-XYZ-001-005-0108,ADC-XYZ-001,0108,005,Drug X 50mg,Drug X 50mg,Drug X 50mg,26,YEARS,18-64,F,WHITE,2025-06-07,2025-06-16,10,Y,Y,N,2025-06-16,3
ADC-XYZ-001-005-0109,ADC-XYZ-001,0109,005,Drug X 50mg,Drug X 50mg,Drug X 50mg,57,YEARS,18-64,F,WHITE,2025-02-18,2025-03-15,26,Y,Y,N,2025-02-20,5
ADC-XYZ-001-005-0112,ADC-XYZ-001,0112,005,Placebo,Placebo,Placebo,67,YEARS,65-74,M,WHITE,2025-09-11,2025-10-10,30,Y,Y,N,2025-09-18,1
ADC-XYZ-001-005-0113,ADC-XYZ-001,0113,005,Drug X 50mg,Drug X 50mg,Drug X 50mg,29,YEARS,18-64,M,BLACK OR AFRICAN AMERICAN,2025-09-07,2025-10-17,41,Y,Y,N,2025-09-25,2
ADC-XYZ-001-005-0114,ADC-XYZ-001,0114,005,Drug X 50mg,Drug X 50mg,Drug X 50mg,32,YEARS,18-64,M,WHITE,2025-04-14,2025-04-30,17,Y,Y,N,2025-05-02,1
ADC-XYZ-001-005-0115,ADC-XYZ-001,0115,005,Placebo,Placebo,Placebo,68,YEARS,65-74,F,WHITE,2025-09-30,2025-11-25,57,Y,Y,N,2025-11-05,1
ADC-XYZ-001-005-0127,ADC-XYZ-001,0127,005,Drug X 50mg,Drug X 50mg,Drug X 50mg,48,YEARS,18-64,F,WHITE,2025-02-16,2025-03-14,27,Y,Y,N,,
ADC-XYZ-001-005-0128,ADC-XYZ-001,0128,005,Drug X 50mg,Drug X 50mg,Drug X 50mg,27,YEARS,18-64,F,WHITE,2025-09-09,2025-11-23,76,Y,Y,N,,
ADC-XYZ-001-005-0129,ADC-XYZ-001,0129,005,Placebo,Placebo,Placebo,60,YEARS,18-64,F,WHITE,2025-07-26,2025-08-06,12,Y,Y,N,2025-08-07,3
ADC-XYZ-001-005-0154,ADC-XYZ-001,0154,005,Drug X 50mg,Drug X 50mg,Drug X 50mg,19,YEARS,18-64,M,OTHER,2025-03-21,2025-06-11,83,Y,Y,N,2025-03-24,4
ADC-XYZ-001-005-0159,ADC-XYZ-001,0159,005,Placebo,Placebo,Placebo,79,YEARS,>=75,M,WHITE,2025-02-16,2025-03-19,32,Y,Y,N,,
ADC-XYZ-001-005-0160,ADC-XYZ-001,0160,005,Placebo,Placebo,Placebo,65,YEARS,65-74,M,BLACK OR AFRICAN AMERICAN,2025-01-29,2025-03-08,39,Y,Y,N,,
ADC-XYZ-001-005-0167,ADC-XYZ-001,0167,005,Placebo,Placebo,Placebo,29,YEARS,18-64,M,WHITE,2025-03-30,2025-04-10,12,Y,Y,N,2025-05-04,3
ADC-XYZ-001-005-0168,ADC-XYZ-001,0168,005,Drug X 50mg,Drug X 50mg,Drug X 50mg,69,YEARS,65-74,F,WHITE,2025-09-26,2025-11-02,38,Y,Y,N,,
ADC-XYZ-001-005-0179,ADC-XYZ-001,0179,005,Placebo,Placebo,Placebo,23,YEARS,18-64,F,WHITE,2025-04-10,2025-06-27,79,Y,Y,N,2025-05-26,2
ADC-XYZ-001-005-0187,ADC-XYZ-001,0187,005,Placebo,Placebo,Placebo,23,YEARS,18-64,F,BLACK OR AFRICAN AMERICAN,2025-08-27,2025-11-09,75,Y,Y,N,2025-09-29,3
ADC-XYZ-001-005-0189,ADC-XYZ-001,0189,005,Placebo,Placebo,Placebo,35,YEARS,18-64,F,BLACK OR AFRICAN AMERICAN,2025-04-03,2025-06-20,79,Y,Y,N,2025-04-06,2
ADC-XYZ-001-005-0199,ADC-XYZ-001,0199,005,Placebo,Placebo,Placebo,76,YEARS,>=75,M,WHITE,2025-05-21,2025-08-12,84,Y,Y,N,2025-06-25,2
ADC-XYZ-001-005-0200,ADC-XYZ-001,0200,005,Drug X 50mg,Drug X 50mg,Drug X 50mg,73,YEARS,65-74,M,ASIAN,2025-01-22,2025-04-03,72,Y,Y,N,2025-02-19,2
ADC-XYZ-001-005-0204,ADC-XYZ-001,0204,005,Drug X 50mg,Drug X 50mg,Drug X 50mg,47,YEARS,18-64,F,WHITE,2025-03-02,2025-05-21,81,Y,Y,N,2025-03-23,2
ADC-XYZ-001-005-0211,ADC-XYZ-001,0211,005,Placebo,Placebo,Placebo,67,YEARS,65-74,F,WHITE,2025-06-12,2025-08-08,58,Y,Y,N,2025-06-12,2
ADC-XYZ-001-005-0222,ADC-XYZ-001,0222,005,Placebo,Placebo,Placebo,65,YEARS,65-74,F,WHITE,2025-02-21,2025-04-08,47,Y,Y,Y,2025-04-12,2
ADC-XYZ-001-005-0224,ADC-XYZ-001,0224,005,Placebo,Placebo,Placebo,18,YEARS,18-64,M,BLACK OR AFRICAN AMERICAN,2025-09-05,2025-11-06,63,Y,Y,N,,
ADC-XYZ-001-005-0227,ADC-XYZ-001,0227,005,Drug X 50mg,Drug X 50mg,Drug X 50mg,40,YEARS,18-64,F,OTHER,2025-04-22,2025-07-02,72,Y,Y,N,2025-07-14,1
ADC-XYZ-001-005-0229,ADC-XYZ-001,0229,005,Drug X 50mg,Drug X 50mg,Drug X 50mg,65,YEARS,65-74,M,WHITE,2025-09-22,2025-11-04,44,Y,Y,N,2025-11-19,1
ADC-XYZ-001-005-0247,ADC-XYZ-001,0247,005,Drug X 50mg,Drug X 50mg,Drug X 50mg,28,YEARS,18-64,F,WHITE,2025-01-15,2025-02-28,45,Y,Y,N,2025-01-16,1
ADC-XYZ-001-005-0248,ADC-XYZ-001,0248,005,Drug X 50mg,Drug X 50mg,Drug X 50mg,25,YEARS,18-64,M,BLACK OR AFRICAN AMERICAN,2025-07-02,2025-09-01,62,Y,Y,N,2025-07-06,2
ADC-XYZ-001-005-0250,ADC-XYZ-001,0250,005,Drug X 50mg,Drug X 50mg,Drug X 50mg,77,YEARS,>=75,F,OTHER,2025-06-14,2025-07-21,38,Y,Y,N,2025-06-21,4
ADC-XYZ-001-005-0251,ADC-XYZ-001,0251,005,Placebo,Placebo,Placebo,27,YEARS,18-64,M,WHITE,2025-01-09,2025-03-14,65,Y,Y,N,2025-01-11,3
ADC-XYZ-001-005-0256,ADC-XYZ-001,0256,005,Placebo,Placebo,Placebo,38,YEARS,18-64,F,BLACK OR AFRICAN AMERICAN,2025-05-31,2025-08-13,75,Y,Y,N,2025-06-22,3
ADC-XYZ-001-005-0257,ADC-XYZ-001,0257,005,Placebo,Placebo,Placebo,78,YEARS,>=75,F,OTHER,2025-08-28,2025-09-18,22,Y,Y,N,2025-09-08,4
ADC-XYZ-001-005-0259,ADC-XYZ-001,0259,005,Placebo,Placebo,Placebo,41,YEARS,18-64,M,ASIAN,2025-06-21,2025-09-05,77,Y,Y,N,,
ADC-XYZ-001-005-0265,ADC-XYZ-001,0265,005,Drug X 50mg,Drug X 50mg,Drug X 50mg,48,YEARS,18-64,M,WHITE,2025-04-05,2025-04-16,12,Y,Y,N,,
ADC-XYZ-001-005-0268,ADC-XYZ-001,0268,005,Placebo,Placebo,Placebo,50,YEARS,18-64,F,BLACK OR AFRICAN AMERICAN,2025-03-02,2025-05-08,68,Y,Y,N,2025-05-07,2
ADC-XYZ-001-005-0273,ADC-XYZ-001,0273,005,Placebo,Placebo,Placebo,27,YEARS,18-64,F,WHITE,2025-02-05,2025-02-20,16,Y,Y,N,2025-02-26,5
ADC-XYZ-001-005-0284,ADC-XYZ-001,0284,005,Drug X 50mg,Drug X 50mg,Drug X 50mg,77,YEARS,>=75,M,WHITE,2025-07-29,2025-09-18,52,Y,Y,N,2025-09-02,3
ADC-XYZ-001-005-0289,ADC-XYZ-001,0289,005,Placebo,Placebo,Placebo,56,YEARS,18-64,F,BLACK OR AFRICAN AMERICAN,2025-09-17,2025-12-04,79,Y,Y,N,,
ADC-XYZ-001-005-0294,ADC-XYZ-001,0294,005,Drug X 50mg,Drug X 50mg,Drug X 50mg,76,YEARS,>=75,F,WHITE,2025-07-01,2025-08-23,54,Y,Y,N,2025-08-10,2
ADC-XYZ-001-005-0295,ADC-XYZ-001,0295,005,Drug X 50mg,Drug X 50mg,Drug X 50mg,33,YEARS,18-64,M,ASIAN,2025-05-02,2025-06-05,35,Y,Y,N,,
ADC-XYZ-001-005-0296,ADC-XYZ-001,0296,005,Placebo,Placebo,Placebo,69,YEARS,65-74,M,ASIAN,2025-04-25,2025-06-03,40,Y,Y,N,2025-04-27,4
ADC-XYZ-001-005-0299,ADC-XYZ-001,0299,005,Placebo,Placebo,Placebo,55,YEARS,18-64,F,OTHER,2025-10-19,2026-01-07,81,Y,Y,N,2025-10-26,3
ADC-XYZ-001-005-0304,ADC-XYZ-001,0304,005,Placebo,Placebo,Placebo,79,YEARS,>=75,F,OTHER,2025-03-01,2025-03-14,14,Y,Y,N,2025-03-08,3
ADC-XYZ-001-005-0305,ADC-XYZ-001,0305,005,Drug X 50mg,Drug X 50mg,Drug X 50mg,32,YEARS,18-64,F,BLACK OR AFRICAN AMERICAN,2025-01-08,2025-03-30,82,Y,Y,N,2025-02-12,1
ADC-XYZ-001-005-0312,ADC-XYZ-001,0312,005,Placebo,Placebo,Placebo,68,YEARS,65-74,M,ASIAN,2025-09-27,2025-10-23,27,Y,Y,Y,2025-10-03,3
ADC-XYZ-001-005-0313,ADC-XYZ-001,0313,005,Drug X 50mg,Drug X 50mg,Drug X 50mg,25,YEARS,18-64,M,BLACK OR AFRICAN AMERICAN,2025-02-14,2025-03-16,31,Y,Y,N,2025-03-27,3
ADC-XYZ-001-005-0316,ADC-XYZ-001,0316,005,Drug X 50mg,Drug X 50mg,Drug X 50mg,61,YEARS,18-64,F,WHITE,2025-05-22,2025-06-16,26,Y,Y,N,2025-05-31,2
ADC-XYZ-001-005-0320,ADC-XYZ-001,0320,005,Placebo,Placebo,Placebo,76,YEARS,>=75,M,WHITE,2025-02-19,2025-03-09,19,Y,Y,N,,
ADC-XYZ-001-005-0332,ADC-XYZ-001,0332,005,Placebo,Placebo,Placebo,47,YEARS,18-64,M,WHITE,2025-06-24,2025-08-07,45,Y,Y,N,2025-07-23,5
ADC-XYZ-001-005-0339,ADC-XYZ-001,0339,005,Drug X 50mg,Drug X 50mg,Drug X 50mg,55,YEARS,18-64,F,WHITE,2025-10-12,2025-11-09,29,Y,Y,N,2025-10-26,3
ADC-XYZ-001-005-0351,ADC-XYZ-001,0351,005,Placebo,Placebo,Placebo,82,YEARS,>=75,F,WHITE,2025-07-11,2025-08-07,28,Y,Y,N,2025-07-30,4
ADC-XYZ-001-005-0362,ADC-XYZ-001,0362,005,Placebo,Placebo,Placebo,50,YEARS,18-64,F,ASIAN,2025-04-08,2025-06-28,82,Y,Y,N,2025-04-13,3
ADC-XYZ-001-005-0366,ADC-XYZ-001,0366,005,Placebo,Placebo,Placebo,36,YEARS,18-64,M,WHITE,2025-09-22,2025-09-29,8,Y,Y,N,2025-09-23,4
ADC-XYZ-001-005-0371,ADC-XYZ-001,0371,005,Drug X 50mg,Drug X 50mg,Drug X 50mg,83,YEARS,>=75,F,BLACK OR AFRICAN AMERICAN,2025-03-13,2025-05-11,60,Y,Y,N,2025-03-27,3
ADC-XYZ-001-005-0378,ADC-XYZ-001,0378,005,Drug X 50mg,Drug X 50mg,Drug X 50mg,77,YEARS,>=75,M,WHITE,2025-09-29,2025-11-21,54,Y,Y,N,2025-10-05,4
ADC-XYZ-001-005-0381,ADC-XYZ-001,0381,005,Placebo,Placebo,Placebo,81,YEARS,>=75,M,WHITE,2025-10-19,2025-11-06,19,Y,Y,N,2025-11-07,4
ADC-XYZ-001-005-0387,ADC-XYZ-001,0387,005,Placebo,Placebo,Placebo,65,YEARS,65-74,F,BLACK OR AFRICAN AMERICAN,2025-07-10,2025-09-13,66,Y,Y,N,2025-08-14,3
ADC-XYZ-001-005-0395,ADC-XYZ-001,0395,005,Drug X 50mg,Drug X 50mg,Drug X 50mg,28,YEARS,18-64,F,ASIAN,2025-09-08,2025-10-05,28,Y,Y,N,,
ADC-XYZ-001-005-0399,ADC-XYZ-001,0399,005,Drug X 50mg,Drug X 50mg,Drug X 50mg,45,YEARS,18-64,F,WHITE,2025-09-16,2025-10-07,22,Y,Y,N,2025-10-30,2
ADC-XYZ-001-005-0404,ADC-XYZ-001,0404,005,Drug X 50mg,Drug X 50mg,Drug X 50mg,73,YEARS,65-74,F,OTHER,2025-07-13,2025-09-22,72,Y,Y,N,2025-08-16,3
ADC-XYZ-001-005-0407,ADC-XYZ-001,0407,005,Placebo,Placebo,Placebo,40,YEARS,18-64,F,WHITE,2025-05-02,2025-06-09,39,Y,Y,N,2025-05-09,2
ADC-XYZ-001-005-0408,ADC-XYZ-001,0408,005,Drug X 50mg,Drug X 50mg,Drug X 50mg,82,YEARS,>=75,F,WHITE,2025-10-16,2025-12-27,73,Y,Y,N,,
ADC-XYZ-001-005-0409,ADC-XYZ-001,0409,005,Drug X 50mg,Drug X 50mg,Drug X 50mg,58,YEARS,18-64,F,WHITE,2025-05-11,2025-07-20,71,Y,Y,N,2025-07-31,3
ADC-XYZ-001-005-0413,ADC-XYZ-001,0413,005,Drug X 50mg,Drug X 50mg,Drug X 50mg,29,YEARS,18-64,F,WHITE,2025-06-26,2025-08-16,52,Y,Y,N,2025-07-30,2
ADC-XYZ-001-005-0416,ADC-XYZ-001,0416,005,Placebo,Placebo,Placebo,65,YEARS,65-74,M,WHITE,2025-10-10,2025-10-26,17,Y,Y,N,,
ADC-XYZ-001-005-0421,ADC-XYZ-001,0421,005,Placebo,Placebo,Placebo,33,YEARS,18-64,F,WHITE,2025-04-06,2025-06-03,59,Y,Y,N,2025-04-12,4
ADC-XYZ-001-005-0425,ADC-XYZ-001,0425,005,Drug X 50mg,Drug X 50mg,Drug X 50mg,62,YEARS,18-64,F,WHITE,2025-04-07,2025-06-01,56,Y,Y,N,2025-05-17,3
ADC-XYZ-001-005-0427,ADC-XYZ-001,0427,005,Placebo,Placebo,Placebo,40,YEARS,18-64,M,WHITE,2025-10-28,2025-12-09,43,Y,Y,N,2025-11-10,2
ADC-XYZ-001-005-0433,ADC-XYZ-001,0433,005,Placebo,Placebo,Placebo,49,YEARS,18-64,F,WHITE,2025-09-09,2025-11-10,63,Y,Y,N,2025-09-20,2
ADC-XYZ-001-005-0436,ADC-XYZ-001,0436,005,Placebo,Placebo,Placebo,64,YEARS,18-64,F,ASIAN,2025-02-18,2025-04-11,53,Y,Y,N,2025-03-10,3
ADC-XYZ-001-005-0437,ADC-XYZ-001,0437,005,Placebo,Placebo,Placebo,55,YEARS,18-64,M,BLACK OR AFRICAN AMERICAN,2025-09-15,2025-11-14,61,Y,Y,N,2025-09-26,1
ADC-XYZ-001-005-0439,ADC-XYZ-001,0439,005,Placebo,Placebo,Placebo,74,YEARS,65-74,F,WHITE,2025-07-16,2025-09-16,63,Y,Y,N,2025-09-11,2
ADC-XYZ-001-005-0441,ADC-XYZ-001,0441,005,Placebo,Placebo,Placebo,84,YEARS,>=75,M,BLACK OR AFRICAN AMERICAN,2025-10-06,2025-10-21,16,Y,Y,N,2025-10-06,4
ADC-XYZ-001-005-0445,ADC-XYZ-001,0445,005,Placebo,Placebo,Placebo,52,YEARS,18-64,M,WHITE,2025-08-19,2025-11-10,84,Y,Y,N,2025-10-16,3
ADC-XYZ-001-005-0453,ADC-XYZ-001,0453,005,Placebo,Placebo,Placebo,39,YEARS,18-64,F,BLACK OR AFRICAN AMERICAN,2025-10-05,2025-12-18,75,Y,Y,N,2025-10-09,2
ADC-XYZ-001-005-0459,ADC-XYZ-001,0459,005,Drug X 50mg,Drug X 50mg,Drug X 50mg,18,YEARS,18-64,F,BLACK OR AFRICAN AMERICAN,2025-10-08,2025-11-15,39,Y,Y,N,2025-10-31,1
ADC-XYZ-001-005-0473,ADC-XYZ-001,0473,005,Placebo,Placebo,Placebo,36,YEARS,18-64,F,WHITE,2025-03-18,2025-03-30,13,Y,Y,N,2025-04-11,3
ADC-XYZ-001-005-0474,ADC-XYZ-001,0474,005,Placebo,Placebo,Placebo,63,YEARS,18-64,M,WHITE,2025-04-16,2025-05-14,29,Y,Y,N,,
ADC-XYZ-001-005-0480,ADC-XYZ-001,0480,005,Placebo,Placebo,Placebo,83,YEARS,>=75,M,WHITE,2025-05-15,2025-07-08,55,Y,Y,N,2025-07-02,1
ADC-XYZ-001-005-0490,ADC-XYZ-001,0490,005,Drug X 50mg,Drug X 50mg,Drug X 50mg,25,YEARS,18-64,F,WHITE,2025-04-12,2025-05-03,22,Y,Y,N,,
ADC-XYZ-001-005-0499,ADC-XYZ-001,0499,005,Placebo,Placebo,Placebo,77,YEARS,>=75,F,WHITE,2025-07-13,2025-08-14,33,Y,Y,N,2025-08-22,3
ADC-XYZ-001-005-0500,ADC-XYZ-001,0500,005,Drug X 50mg,Drug X 50mg,Drug X 50mg,31,YEARS,18-64,F,WHITE,2025-06-19,2025-08-18,61,Y,Y,N,2025-06-19,4
